individual_punho,ambos_punhos_pes,instructions1,instructions2,trials.thisRepN,trials.thisTrialN,trials.thisN,trials.thisIndex,trials_3.thisRepN,trials_3.thisTrialN,trials_3.thisN,trials_3.thisIndex,imageryTrials.thisRepN,imageryTrials.thisTrialN,imageryTrials.thisN,imageryTrials.thisIndex,trials_4.thisRepN,trials_4.thisTrialN,trials_4.thisN,trials_4.thisIndex,imageryTrials2.thisRepN,imageryTrials2.thisTrialN,imageryTrials2.thisN,imageryTrials2.thisIndex,thisRow.t,notes,WelcomeScreen.started,textWelcomeMessage.started,WelcomeScreen.stopped,blank200.started,textBlank200.started,textBlank200.stopped,blank200.stopped,StartScreen.started,textOrientationMessage.started,keyWelcome.started,StartScreen.stopped,keyWelcome.keys,keyWelcome.rt,keyWelcome.duration,start.started,polygon_start.started,polygon_start.stopped,start.stopped,rest.started,textrest.started,polygon_rest.started,rest.stopped,task.started,polygonDE.started,image.started,task.stopped,textrest.stopped,polygon_rest.stopped,Start2Screen.started,textOrientationMessage2.started,keyOrientation2Message.started,Start2Screen.stopped,keyOrientation2Message.keys,keyOrientation2Message.rt,keyOrientation2Message.duration,task2.started,polygonPP.started,image_2.started,task2.stopped,polygonDE.stopped,image.stopped,polygonPP.stopped,image_2.stopped,GoodByeScreen.started,textGoodBuyMessage.started,textGoodBuyMessage.stopped,GoodByeScreen.stopped,participant,session,name,date,expName,psychopyVersion,frameRate,expStart,
,,,,,,,,,,,,,,,,,,,,,,,,,,0.0022940999997445033,0.016485999999986234,2.001927499999965,,,,,,,,,,,,,,,,,,,,,,,,,,,,,,,,,,,,,,,,,,,,,1,003,,2024-04-25_12h14.48.012,Motor Imagery,2024.1.1,None,2024-04-25 12h15.10.102337 +0100,
,,,,,,,,,,,,,,,,,,,,,,,,,,,,,2.001957499999662,2.0060238000000936,2.2101159999997435,2.1902658999997584,,,,,,,,,,,,,,,,,,,,,,,,,,,,,,,,,,,,,,,,,1,003,,2024-04-25_12h14.48.012,Motor Imagery,2024.1.1,None,2024-04-25 12h15.10.102337 +0100,
Imagens/right.png,Imagens/up.png,"Vais fechar e abrir o punho direito ou esquerdo, mediante te apareça as setas "Direita" ou "Esquerda". Pressione a barra do ESPAÇO para começar.","Vais fechar e abrir ambos os punhos ou os pés, mediante te apareçam as setas "Para cima" ou "Para baixo", respetivamente. Pressione a barra do ESPAÇO para começar.",0,0,0,0,0,0,0,0,0,0,0,0,,,,,,,,,12.392812799999774,,,,,,,,,2.19631309999977,2.2101159999997435,2.2101159999997435,11.38828650000005,space,11.315151599999808,None,11.38865910000004,11.391444800000045,12.392812799999774,12.377929499999937,12.390077499999734,12.392812799999774,12.392812799999774,16.39254200000005,16.392563299999892,16.453606099999888,16.453606099999888,20.389636299999893,,,,,,,,,,,,,,,,,,,,,,1,003,,2024-04-25_12h14.48.012,Motor Imagery,2024.1.1,None,2024-04-25 12h15.10.102337 +0100,
Imagens/left.png,Imagens/down.png,"Vais imaginar o movimento de fechar e abrir o punho direito ou esquerdo, mediante te apareça as setas "Direita" ou "Esquerda". Pressione a barra do ESPAÇO para começar.","Vais imaginar o movimento de fechar e abrir ambos os punhos ou os pés, mediante te apareçam "Para cima" ou "Para baixo", respetivamente.  Pressione a barra do ESPAÇO para começar.",0,0,0,0,0,0,0,0,0,1,1,1,,,,,,,,,20.394102700000076,,,,,,,,,,,,,,,,,,,,20.390058899999985,20.394102700000076,20.394102700000076,24.38201029999982,24.382023599999684,24.640265,24.640265,28.398660899999868,24.640265,24.640265,,,,,,,,,,,,,,,,,,,,1,003,,2024-04-25_12h14.48.012,Motor Imagery,2024.1.1,None,2024-04-25 12h15.10.102337 +0100,
Imagens/right.png,Imagens/up.png,"Vais fechar e abrir o punho direito ou esquerdo, mediante te apareça as setas "Direita" ou "Esquerda". Pressione a barra do ESPAÇO para começar.","Vais fechar e abrir ambos os punhos ou os pés, mediante te apareçam as setas "Para cima" ou "Para baixo", respetivamente. Pressione a barra do ESPAÇO para começar.",0,0,0,0,0,0,0,0,1,0,2,0,,,,,,,,,28.40291679999973,,,,,,,,,,,,,,,,,,,,28.399130499999956,28.40291679999973,28.40291679999973,32.392696200000046,32.392728499999976,32.44530020000002,32.44530020000002,36.389277199999924,,,,,,,,,,,,,,,,,,,,,,1,003,,2024-04-25_12h14.48.012,Motor Imagery,2024.1.1,None,2024-04-25 12h15.10.102337 +0100,
Imagens/left.png,Imagens/down.png,"Vais imaginar o movimento de fechar e abrir o punho direito ou esquerdo, mediante te apareça as setas "Direita" ou "Esquerda". Pressione a barra do ESPAÇO para começar.","Vais imaginar o movimento de fechar e abrir ambos os punhos ou os pés, mediante te apareçam "Para cima" ou "Para baixo", respetivamente.  Pressione a barra do ESPAÇO para começar.",0,0,0,0,0,0,0,0,1,1,3,1,,,,,,,,,36.394092999999884,,,,,,,,,,,,,,,,,,,,36.389702099999795,36.394092999999884,36.394092999999884,40.378542800000105,40.378555400000096,40.6263899999999,40.6263899999999,44.389873499999794,40.6263899999999,40.6263899999999,,,,,,,,,,,,,,,,,,,,1,003,,2024-04-25_12h14.48.012,Motor Imagery,2024.1.1,None,2024-04-25 12h15.10.102337 +0100,
Imagens/left.png,Imagens/down.png,"Vais imaginar o movimento de fechar e abrir o punho direito ou esquerdo, mediante te apareça as setas "Direita" ou "Esquerda". Pressione a barra do ESPAÇO para começar.","Vais imaginar o movimento de fechar e abrir ambos os punhos ou os pés, mediante te apareçam "Para cima" ou "Para baixo", respetivamente.  Pressione a barra do ESPAÇO para começar.",0,0,0,0,0,0,0,0,2,0,4,1,,,,,,,,,44.39271860000008,,,,,,,,,,,,,,,,,,,,44.39034700000002,44.39271860000008,44.39271860000008,48.38793289999967,48.38794890000008,48.487141600000086,48.487141600000086,52.390556699999706,48.487141600000086,48.487141600000086,,,,,,,,,,,,,,,,,,,,1,003,,2024-04-25_12h14.48.012,Motor Imagery,2024.1.1,None,2024-04-25 12h15.10.102337 +0100,
Imagens/right.png,Imagens/up.png,"Vais fechar e abrir o punho direito ou esquerdo, mediante te apareça as setas "Direita" ou "Esquerda". Pressione a barra do ESPAÇO para começar.","Vais fechar e abrir ambos os punhos ou os pés, mediante te apareçam as setas "Para cima" ou "Para baixo", respetivamente. Pressione a barra do ESPAÇO para começar.",0,0,0,0,0,0,0,0,2,1,5,0,,,,,,,,,52.39449719999993,,,,,,,,,,,,,,,,,,,,52.39088339999989,52.39449719999993,52.39449719999993,56.37780500000008,56.37781939999968,56.42706649999991,56.42706649999991,60.38996180000004,56.42706649999991,56.42706649999991,,,,,,,,,,,,,,,,,,,,1,003,,2024-04-25_12h14.48.012,Motor Imagery,2024.1.1,None,2024-04-25 12h15.10.102337 +0100,
Imagens/left.png,Imagens/down.png,"Vais imaginar o movimento de fechar e abrir o punho direito ou esquerdo, mediante te apareça as setas "Direita" ou "Esquerda". Pressione a barra do ESPAÇO para começar.","Vais imaginar o movimento de fechar e abrir ambos os punhos ou os pés, mediante te apareçam "Para cima" ou "Para baixo", respetivamente.  Pressione a barra do ESPAÇO para começar.",0,0,0,0,0,0,0,0,3,0,6,1,,,,,,,,,60.39404160000004,,,,,,,,,,,,,,,,,,,,60.39023769999994,60.39404160000004,60.39404160000004,64.37810469999977,64.37812540000004,64.81054379999978,64.81054379999978,68.38982889999988,64.81054379999978,64.81054379999978,,,,,,,,,,,,,,,,,,,,1,003,,2024-04-25_12h14.48.012,Motor Imagery,2024.1.1,None,2024-04-25 12h15.10.102337 +0100,
Imagens/right.png,Imagens/up.png,"Vais fechar e abrir o punho direito ou esquerdo, mediante te apareça as setas "Direita" ou "Esquerda". Pressione a barra do ESPAÇO para começar.","Vais fechar e abrir ambos os punhos ou os pés, mediante te apareçam as setas "Para cima" ou "Para baixo", respetivamente. Pressione a barra do ESPAÇO para começar.",0,0,0,0,0,0,0,0,3,1,7,0,,,,,,,,,68.39507030000004,,,,,,,,,,,,,,,,,,,,68.39025809999976,68.39507030000004,68.39507030000004,72.37852720000001,72.37855069999978,72.4503709999999,72.4503709999999,76.3890409999999,72.4503709999999,72.4503709999999,,,,,,,,,,,,,,,,,,,,1,003,,2024-04-25_12h14.48.012,Motor Imagery,2024.1.1,None,2024-04-25 12h15.10.102337 +0100,
Imagens/left.png,Imagens/down.png,"Vais imaginar o movimento de fechar e abrir o punho direito ou esquerdo, mediante te apareça as setas "Direita" ou "Esquerda". Pressione a barra do ESPAÇO para começar.","Vais imaginar o movimento de fechar e abrir ambos os punhos ou os pés, mediante te apareçam "Para cima" ou "Para baixo", respetivamente.  Pressione a barra do ESPAÇO para começar.",0,0,0,0,0,0,0,0,4,0,8,1,,,,,,,,,76.39433659999986,,,,,,,,,,,,,,,,,,,,76.38945899999999,76.39433659999986,76.39433659999986,80.3786511999997,80.3786728,80.81125100000008,80.81125100000008,84.39003249999996,80.81125100000008,80.81125100000008,,,,,,,,,,,,,,,,,,,,1,003,,2024-04-25_12h14.48.012,Motor Imagery,2024.1.1,None,2024-04-25 12h15.10.102337 +0100,
Imagens/right.png,Imagens/up.png,"Vais fechar e abrir o punho direito ou esquerdo, mediante te apareça as setas "Direita" ou "Esquerda". Pressione a barra do ESPAÇO para começar.","Vais fechar e abrir ambos os punhos ou os pés, mediante te apareçam as setas "Para cima" ou "Para baixo", respetivamente. Pressione a barra do ESPAÇO para começar.",0,0,0,0,0,0,0,0,4,1,9,0,,,,,,,,,84.39341979999972,,,,,,,,,,,,,,,,,,,,84.39037979999966,84.39341979999972,84.39341979999972,88.37799169999971,88.37800659999994,88.41766409999991,88.41766409999991,92.38912769999979,88.41766409999991,88.41766409999991,,,,,,,,,,,,,,,,,,,,1,003,,2024-04-25_12h14.48.012,Motor Imagery,2024.1.1,None,2024-04-25 12h15.10.102337 +0100,
Imagens/left.png,Imagens/down.png,"Vais imaginar o movimento de fechar e abrir o punho direito ou esquerdo, mediante te apareça as setas "Direita" ou "Esquerda". Pressione a barra do ESPAÇO para começar.","Vais imaginar o movimento de fechar e abrir ambos os punhos ou os pés, mediante te apareçam "Para cima" ou "Para baixo", respetivamente.  Pressione a barra do ESPAÇO para começar.",0,0,0,0,0,0,0,0,5,0,10,1,,,,,,,,,92.3936875999998,,,,,,,,,,,,,,,,,,,,92.38940649999995,92.3936875999998,92.3936875999998,96.37705599999981,96.3770942000001,96.60543989999996,96.60543989999996,100.3889021,96.60543989999996,96.60543989999996,,,,,,,,,,,,,,,,,,,,1,003,,2024-04-25_12h14.48.012,Motor Imagery,2024.1.1,None,2024-04-25 12h15.10.102337 +0100,
Imagens/right.png,Imagens/up.png,"Vais fechar e abrir o punho direito ou esquerdo, mediante te apareça as setas "Direita" ou "Esquerda". Pressione a barra do ESPAÇO para começar.","Vais fechar e abrir ambos os punhos ou os pés, mediante te apareçam as setas "Para cima" ou "Para baixo", respetivamente. Pressione a barra do ESPAÇO para começar.",0,0,0,0,0,0,0,0,5,1,11,0,,,,,,,,,100.4707814999997,,,,,,,,,,,,,,,,,,,,100.38913520000006,100.4707814999997,100.4707814999997,104.38911389999976,104.3891263999999,104.4398385999998,104.4398385999998,108.3899809999998,,,,,,,,,,,,,,,,,,,,,,1,003,,2024-04-25_12h14.48.012,Motor Imagery,2024.1.1,None,2024-04-25 12h15.10.102337 +0100,
Imagens/right.png,Imagens/up.png,"Vais fechar e abrir o punho direito ou esquerdo, mediante te apareça as setas "Direita" ou "Esquerda". Pressione a barra do ESPAÇO para começar.","Vais fechar e abrir ambos os punhos ou os pés, mediante te apareçam as setas "Para cima" ou "Para baixo", respetivamente. Pressione a barra do ESPAÇO para começar.",0,0,0,0,0,0,0,0,6,0,12,0,,,,,,,,,108.39357309999968,,,,,,,,,,,,,,,,,,,,108.39025569999967,108.39357309999968,108.39357309999968,112.37726019999991,112.3773099,112.42083830000001,112.42083830000001,116.38940839999987,112.42083830000001,112.42083830000001,,,,,,,,,,,,,,,,,,,,1,003,,2024-04-25_12h14.48.012,Motor Imagery,2024.1.1,None,2024-04-25 12h15.10.102337 +0100,
Imagens/left.png,Imagens/down.png,"Vais imaginar o movimento de fechar e abrir o punho direito ou esquerdo, mediante te apareça as setas "Direita" ou "Esquerda". Pressione a barra do ESPAÇO para começar.","Vais imaginar o movimento de fechar e abrir ambos os punhos ou os pés, mediante te apareçam "Para cima" ou "Para baixo", respetivamente.  Pressione a barra do ESPAÇO para começar.",0,0,0,0,0,0,0,0,6,1,13,1,,,,,,,,,116.39386609999974,,,,,,,,,,,,,,,,,,,,116.39014459999999,116.39386609999974,116.39386609999974,120.37902269999995,120.37903659999984,120.6136449999999,120.6136449999999,124.39646659999971,120.6136449999999,120.6136449999999,,,,,,,,,,,,,,,,,,,,1,003,,2024-04-25_12h14.48.012,Motor Imagery,2024.1.1,None,2024-04-25 12h15.10.102337 +0100,
Imagens/right.png,Imagens/up.png,"Vais fechar e abrir o punho direito ou esquerdo, mediante te apareça as setas "Direita" ou "Esquerda". Pressione a barra do ESPAÇO para começar.","Vais fechar e abrir ambos os punhos ou os pés, mediante te apareçam as setas "Para cima" ou "Para baixo", respetivamente. Pressione a barra do ESPAÇO para começar.",0,0,0,0,0,0,0,0,7,0,14,0,,,,,,,,,124.39938630000006,,,,,,,,,,,,,,,,,,,,124.39717399999972,124.39938630000006,124.39938630000006,128.38569559999996,128.38570859999982,128.4214468,128.4214468,132.39006429999972,128.4214468,128.4214468,,,,,,,,,,,,,,,,,,,,1,003,,2024-04-25_12h14.48.012,Motor Imagery,2024.1.1,None,2024-04-25 12h15.10.102337 +0100,
Imagens/left.png,Imagens/down.png,"Vais imaginar o movimento de fechar e abrir o punho direito ou esquerdo, mediante te apareça as setas "Direita" ou "Esquerda". Pressione a barra do ESPAÇO para começar.","Vais imaginar o movimento de fechar e abrir ambos os punhos ou os pés, mediante te apareçam "Para cima" ou "Para baixo", respetivamente.  Pressione a barra do ESPAÇO para começar.",0,0,0,0,0,0,0,0,7,1,15,1,,,,,,,,,132.39685139999983,,,,,,,,,,,,,,,,,,,,132.39033629999994,132.39685139999983,132.39685139999983,136.38884659999985,136.38886000000002,136.6158873999998,136.6158873999998,140.38921269999992,136.6158873999998,136.6158873999998,,,,,,,,,,,,,,,,,,,,1,003,,2024-04-25_12h14.48.012,Motor Imagery,2024.1.1,None,2024-04-25 12h15.10.102337 +0100,
Imagens/right.png,Imagens/up.png,"Vais fechar e abrir o punho direito ou esquerdo, mediante te apareça as setas "Direita" ou "Esquerda". Pressione a barra do ESPAÇO para começar.","Vais fechar e abrir ambos os punhos ou os pés, mediante te apareçam as setas "Para cima" ou "Para baixo", respetivamente. Pressione a barra do ESPAÇO para começar.",0,0,0,0,0,0,0,0,8,0,16,0,,,,,,,,,140.39329679999992,,,,,,,,,,,,,,,,,,,,140.38954650000005,140.39329679999992,140.39329679999992,144.3775502999997,144.37758789999998,144.41534779999984,144.41534779999984,148.390089,144.41534779999984,144.41534779999984,,,,,,,,,,,,,,,,,,,,1,003,,2024-04-25_12h14.48.012,Motor Imagery,2024.1.1,None,2024-04-25 12h15.10.102337 +0100,
Imagens/left.png,Imagens/down.png,"Vais imaginar o movimento de fechar e abrir o punho direito ou esquerdo, mediante te apareça as setas "Direita" ou "Esquerda". Pressione a barra do ESPAÇO para começar.","Vais imaginar o movimento de fechar e abrir ambos os punhos ou os pés, mediante te apareçam "Para cima" ou "Para baixo", respetivamente.  Pressione a barra do ESPAÇO para começar.",0,0,0,0,0,0,0,0,8,1,17,1,,,,,,,,,148.3934132999998,,,,,,,,,,,,,,,,,,,,148.39038589999973,148.3934132999998,148.3934132999998,152.37665160000006,152.37666599999966,152.6046553000001,152.6046553000001,156.38948170000003,152.6046553000001,152.6046553000001,,,,,,,,,,,,,,,,,,,,1,003,,2024-04-25_12h14.48.012,Motor Imagery,2024.1.1,None,2024-04-25 12h15.10.102337 +0100,
Imagens/right.png,Imagens/up.png,"Vais fechar e abrir o punho direito ou esquerdo, mediante te apareça as setas "Direita" ou "Esquerda". Pressione a barra do ESPAÇO para começar.","Vais fechar e abrir ambos os punhos ou os pés, mediante te apareçam as setas "Para cima" ou "Para baixo", respetivamente. Pressione a barra do ESPAÇO para começar.",0,0,0,0,0,0,0,0,9,0,18,0,,,,,,,,,156.39334139999983,,,,,,,,,,,,,,,,,,,,156.38977569999997,156.39334139999983,156.39334139999983,160.37808029999997,160.3780926999998,160.43350340000006,160.43350340000006,164.38914159999968,160.43350340000006,160.43350340000006,,,,,,,,,,,,,,,,,,,,1,003,,2024-04-25_12h14.48.012,Motor Imagery,2024.1.1,None,2024-04-25 12h15.10.102337 +0100,
Imagens/left.png,Imagens/down.png,"Vais imaginar o movimento de fechar e abrir o punho direito ou esquerdo, mediante te apareça as setas "Direita" ou "Esquerda". Pressione a barra do ESPAÇO para começar.","Vais imaginar o movimento de fechar e abrir ambos os punhos ou os pés, mediante te apareçam "Para cima" ou "Para baixo", respetivamente.  Pressione a barra do ESPAÇO para começar.",0,0,0,0,0,0,0,0,9,1,19,1,,,,,,,,,164.39319999999998,,,,,,,,,,,,,,,,,,,,164.38942300000008,164.39319999999998,164.39319999999998,168.37746519999973,168.37748250000004,168.62053930000002,168.62053930000002,172.38915529999986,168.62053930000002,168.62053930000002,,,,,,,,,,,,,,,,,,,,1,003,,2024-04-25_12h14.48.012,Motor Imagery,2024.1.1,None,2024-04-25 12h15.10.102337 +0100,
Imagens/left.png,Imagens/down.png,"Vais imaginar o movimento de fechar e abrir o punho direito ou esquerdo, mediante te apareça as setas "Direita" ou "Esquerda". Pressione a barra do ESPAÇO para começar.","Vais imaginar o movimento de fechar e abrir ambos os punhos ou os pés, mediante te apareçam "Para cima" ou "Para baixo", respetivamente.  Pressione a barra do ESPAÇO para começar.",0,0,0,0,0,0,0,0,10,0,20,1,,,,,,,,,172.39342929999975,,,,,,,,,,,,,,,,,,,,172.38945029999968,172.39342929999975,172.39342929999975,176.37872659999994,176.37876689999985,176.47358729999996,176.47358729999996,180.40129179999985,176.47358729999996,176.47358729999996,,,,,,,,,,,,,,,,,,,,1,003,,2024-04-25_12h14.48.012,Motor Imagery,2024.1.1,None,2024-04-25 12h15.10.102337 +0100,
Imagens/right.png,Imagens/up.png,"Vais fechar e abrir o punho direito ou esquerdo, mediante te apareça as setas "Direita" ou "Esquerda". Pressione a barra do ESPAÇO para começar.","Vais fechar e abrir ambos os punhos ou os pés, mediante te apareçam as setas "Para cima" ou "Para baixo", respetivamente. Pressione a barra do ESPAÇO para começar.",0,0,0,0,0,0,0,0,10,1,21,0,,,,,,,,,180.40446619999966,,,,,,,,,,,,,,,,,,,,180.40211439999985,180.40446619999966,180.40446619999966,184.38961359999985,184.38963220000005,184.45897289999994,184.45897289999994,188.39208430000008,,,,,,,,,,,,,,,,,,,,,,1,003,,2024-04-25_12h14.48.012,Motor Imagery,2024.1.1,None,2024-04-25 12h15.10.102337 +0100,
Imagens/left.png,Imagens/down.png,"Vais imaginar o movimento de fechar e abrir o punho direito ou esquerdo, mediante te apareça as setas "Direita" ou "Esquerda". Pressione a barra do ESPAÇO para começar.","Vais imaginar o movimento de fechar e abrir ambos os punhos ou os pés, mediante te apareçam "Para cima" ou "Para baixo", respetivamente.  Pressione a barra do ESPAÇO para começar.",0,0,0,0,0,0,0,0,11,0,22,1,,,,,,,,,188.39590550000003,,,,,,,,,,,,,,,,,,,,188.3928133999998,188.39590550000003,188.39590550000003,192.38128800000004,192.38130329999967,192.60820209999974,192.60820209999974,196.38926279999987,192.60820209999974,192.60820209999974,,,,,,,,,,,,,,,,,,,,1,003,,2024-04-25_12h14.48.012,Motor Imagery,2024.1.1,None,2024-04-25 12h15.10.102337 +0100,
Imagens/right.png,Imagens/up.png,"Vais fechar e abrir o punho direito ou esquerdo, mediante te apareça as setas "Direita" ou "Esquerda". Pressione a barra do ESPAÇO para começar.","Vais fechar e abrir ambos os punhos ou os pés, mediante te apareçam as setas "Para cima" ou "Para baixo", respetivamente. Pressione a barra do ESPAÇO para começar.",0,0,0,0,0,0,0,0,11,1,23,0,,,,,,,,,196.39330459999974,,,,,,,,,,,,,,,,,,,,196.3895391000001,196.39330459999974,196.39330459999974,200.37635299999965,200.3763654999998,200.4240077999998,200.4240077999998,204.3901437999998,200.4240077999998,200.4240077999998,,,,,,,,,,,,,,,,,,,,1,003,,2024-04-25_12h14.48.012,Motor Imagery,2024.1.1,None,2024-04-25 12h15.10.102337 +0100,
Imagens/left.png,Imagens/down.png,"Vais imaginar o movimento de fechar e abrir o punho direito ou esquerdo, mediante te apareça as setas "Direita" ou "Esquerda". Pressione a barra do ESPAÇO para começar.","Vais imaginar o movimento de fechar e abrir ambos os punhos ou os pés, mediante te apareçam "Para cima" ou "Para baixo", respetivamente.  Pressione a barra do ESPAÇO para começar.",0,0,0,0,0,0,0,0,12,0,24,1,,,,,,,,,204.39528859999973,,,,,,,,,,,,,,,,,,,,204.3905795999999,204.39528859999973,204.39528859999973,208.3823481999998,208.38236259999985,208.61441859999968,208.61441859999968,212.38948149999987,208.61441859999968,208.61441859999968,,,,,,,,,,,,,,,,,,,,1,003,,2024-04-25_12h14.48.012,Motor Imagery,2024.1.1,None,2024-04-25 12h15.10.102337 +0100,
Imagens/right.png,Imagens/up.png,"Vais fechar e abrir o punho direito ou esquerdo, mediante te apareça as setas "Direita" ou "Esquerda". Pressione a barra do ESPAÇO para começar.","Vais fechar e abrir ambos os punhos ou os pés, mediante te apareçam as setas "Para cima" ou "Para baixo", respetivamente. Pressione a barra do ESPAÇO para começar.",0,0,0,0,0,0,0,0,12,1,25,0,,,,,,,,,212.39340949999996,,,,,,,,,,,,,,,,,,,,212.3898535999997,212.39340949999996,212.39340949999996,216.3764096,216.37642349999987,216.4362541999999,216.4362541999999,220.38938329999974,216.4362541999999,216.4362541999999,,,,,,,,,,,,,,,,,,,,1,003,,2024-04-25_12h14.48.012,Motor Imagery,2024.1.1,None,2024-04-25 12h15.10.102337 +0100,
Imagens/right.png,Imagens/up.png,"Vais fechar e abrir o punho direito ou esquerdo, mediante te apareça as setas "Direita" ou "Esquerda". Pressione a barra do ESPAÇO para começar.","Vais fechar e abrir ambos os punhos ou os pés, mediante te apareçam as setas "Para cima" ou "Para baixo", respetivamente. Pressione a barra do ESPAÇO para começar.",0,0,0,0,0,0,0,0,13,0,26,0,,,,,,,,,220.3938561,,,,,,,,,,,,,,,,,,,,220.3901225999998,220.3938561,220.3938561,224.3783487999999,224.37836339999967,224.42233039999974,224.42233039999974,228.3904591999999,224.42233039999974,224.42233039999974,,,,,,,,,,,,,,,,,,,,1,003,,2024-04-25_12h14.48.012,Motor Imagery,2024.1.1,None,2024-04-25 12h15.10.102337 +0100,
Imagens/left.png,Imagens/down.png,"Vais imaginar o movimento de fechar e abrir o punho direito ou esquerdo, mediante te apareça as setas "Direita" ou "Esquerda". Pressione a barra do ESPAÇO para começar.","Vais imaginar o movimento de fechar e abrir ambos os punhos ou os pés, mediante te apareçam "Para cima" ou "Para baixo", respetivamente.  Pressione a barra do ESPAÇO para começar.",0,0,0,0,0,0,0,0,13,1,27,1,,,,,,,,,228.3941374000001,,,,,,,,,,,,,,,,,,,,228.3907194999997,228.3941374000001,228.3941374000001,232.38108650000004,232.38110049999977,232.6383467999999,232.6383467999999,236.39009510000005,232.6383467999999,232.6383467999999,,,,,,,,,,,,,,,,,,,,1,003,,2024-04-25_12h14.48.012,Motor Imagery,2024.1.1,None,2024-04-25 12h15.10.102337 +0100,
Imagens/left.png,Imagens/down.png,"Vais imaginar o movimento de fechar e abrir o punho direito ou esquerdo, mediante te apareça as setas "Direita" ou "Esquerda". Pressione a barra do ESPAÇO para começar.","Vais imaginar o movimento de fechar e abrir ambos os punhos ou os pés, mediante te apareçam "Para cima" ou "Para baixo", respetivamente.  Pressione a barra do ESPAÇO para começar.",0,0,0,0,0,0,0,0,14,0,28,1,,,,,,,,,236.39804490000006,,,,,,,,,,,,,,,,,,,,236.390402,236.39804490000006,236.39804490000006,240.38116249999985,240.38117909999983,240.4822564000001,240.4822564000001,244.3941095,240.4822564000001,240.4822564000001,,,,,,,,,,,,,,,,,,,,1,003,,2024-04-25_12h14.48.012,Motor Imagery,2024.1.1,None,2024-04-25 12h15.10.102337 +0100,
Imagens/right.png,Imagens/up.png,"Vais fechar e abrir o punho direito ou esquerdo, mediante te apareça as setas "Direita" ou "Esquerda". Pressione a barra do ESPAÇO para começar.","Vais fechar e abrir ambos os punhos ou os pés, mediante te apareçam as setas "Para cima" ou "Para baixo", respetivamente. Pressione a barra do ESPAÇO para começar.",0,0,0,0,0,0,0,0,14,1,29,0,,,,,,,,,244.3984645999999,,,,,,,,,,,,,,,,,,,,244.3945662000001,244.3984645999999,244.3984645999999,248.3865622999997,248.38657939999985,248.42906850000008,248.42906850000008,252.38923350000005,248.42906850000008,248.42906850000008,,,,,,,,,,,,,,,,,,,,1,003,,2024-04-25_12h14.48.012,Motor Imagery,2024.1.1,None,2024-04-25 12h15.10.102337 +0100,
Imagens/right.png,Imagens/up.png,"Vais fechar e abrir o punho direito ou esquerdo, mediante te apareça as setas "Direita" ou "Esquerda". Pressione a barra do ESPAÇO para começar.","Vais fechar e abrir ambos os punhos ou os pés, mediante te apareçam as setas "Para cima" ou "Para baixo", respetivamente. Pressione a barra do ESPAÇO para começar.",0,0,0,0,0,0,0,0,,,,,,,,,,,,,,,,,,,,,,,,,,,,,,,,,,,,,,,,,,,,,,,,,,,,,,,,,,,,,,1,003,,2024-04-25_12h14.48.012,Motor Imagery,2024.1.1,None,2024-04-25 12h15.10.102337 +0100,
Imagens/left.png,Imagens/down.png,"Vais imaginar o movimento de fechar e abrir o punho direito ou esquerdo, mediante te apareça as setas "Direita" ou "Esquerda". Pressione a barra do ESPAÇO para começar.","Vais imaginar o movimento de fechar e abrir ambos os punhos ou os pés, mediante te apareçam "Para cima" ou "Para baixo", respetivamente.  Pressione a barra do ESPAÇO para começar.",0,0,0,0,0,1,1,1,0,0,0,1,,,,,,,,,262.1512118999999,,,,,,,,,252.38958980000007,252.40833500000008,252.40833500000008,261.1534545999998,space,261.1520203,None,261.15369889999965,261.1567345999997,262.1512118999999,262.1433179999999,262.1476131999998,262.1512118999999,262.1512118999999,266.1393172999997,266.13933099999986,266.3869638000001,266.3869638000001,270.15701039999976,266.3869638000001,266.3869638000001,,,,,,,,,,,,,,,,,,,,1,003,,2024-04-25_12h14.48.012,Motor Imagery,2024.1.1,None,2024-04-25 12h15.10.102337 +0100,
Imagens/right.png,Imagens/up.png,"Vais fechar e abrir o punho direito ou esquerdo, mediante te apareça as setas "Direita" ou "Esquerda". Pressione a barra do ESPAÇO para começar.","Vais fechar e abrir ambos os punhos ou os pés, mediante te apareçam as setas "Para cima" ou "Para baixo", respetivamente. Pressione a barra do ESPAÇO para começar.",0,0,0,0,0,1,1,1,0,1,1,0,,,,,,,,,270.1619956999998,,,,,,,,,,,,,,,,,,,,270.15745119999974,270.1619956999998,270.1619956999998,274.1484872000001,274.1485011999998,274.1993474000001,274.1993474000001,278.1568026,274.1993474000001,274.1993474000001,,,,,,,,,,,,,,,,,,,,1,003,,2024-04-25_12h14.48.012,Motor Imagery,2024.1.1,None,2024-04-25 12h15.10.102337 +0100,
Imagens/left.png,Imagens/down.png,"Vais imaginar o movimento de fechar e abrir o punho direito ou esquerdo, mediante te apareça as setas "Direita" ou "Esquerda". Pressione a barra do ESPAÇO para começar.","Vais imaginar o movimento de fechar e abrir ambos os punhos ou os pés, mediante te apareçam "Para cima" ou "Para baixo", respetivamente.  Pressione a barra do ESPAÇO para começar.",0,0,0,0,0,1,1,1,1,0,2,1,,,,,,,,,278.1600193999998,,,,,,,,,,,,,,,,,,,,278.1570764999997,278.1600193999998,278.1600193999998,282.14332620000005,282.1433398999998,282.3805199999997,282.3805199999997,286.15695189999997,282.3805199999997,282.3805199999997,,,,,,,,,,,,,,,,,,,,1,003,,2024-04-25_12h14.48.012,Motor Imagery,2024.1.1,None,2024-04-25 12h15.10.102337 +0100,
Imagens/right.png,Imagens/up.png,"Vais fechar e abrir o punho direito ou esquerdo, mediante te apareça as setas "Direita" ou "Esquerda". Pressione a barra do ESPAÇO para começar.","Vais fechar e abrir ambos os punhos ou os pés, mediante te apareçam as setas "Para cima" ou "Para baixo", respetivamente. Pressione a barra do ESPAÇO para começar.",0,0,0,0,0,1,1,1,1,1,3,0,,,,,,,,,286.1616805999997,,,,,,,,,,,,,,,,,,,,286.1572613999997,286.1616805999997,286.1616805999997,290.14528139999993,290.14532869999994,290.20446549999997,290.20446549999997,294.1561121999998,290.20446549999997,290.20446549999997,,,,,,,,,,,,,,,,,,,,1,003,,2024-04-25_12h14.48.012,Motor Imagery,2024.1.1,None,2024-04-25 12h15.10.102337 +0100,
Imagens/left.png,Imagens/down.png,"Vais imaginar o movimento de fechar e abrir o punho direito ou esquerdo, mediante te apareça as setas "Direita" ou "Esquerda". Pressione a barra do ESPAÇO para começar.","Vais imaginar o movimento de fechar e abrir ambos os punhos ou os pés, mediante te apareçam "Para cima" ou "Para baixo", respetivamente.  Pressione a barra do ESPAÇO para começar.",0,0,0,0,0,1,1,1,2,0,4,1,,,,,,,,,294.1597882000001,,,,,,,,,,,,,,,,,,,,294.1563833,294.1597882000001,294.1597882000001,298.1456177,298.1456548000001,298.40270489999966,298.40270489999966,302.1562257999999,298.40270489999966,298.40270489999966,,,,,,,,,,,,,,,,,,,,1,003,,2024-04-25_12h14.48.012,Motor Imagery,2024.1.1,None,2024-04-25 12h15.10.102337 +0100,
Imagens/right.png,Imagens/up.png,"Vais fechar e abrir o punho direito ou esquerdo, mediante te apareça as setas "Direita" ou "Esquerda". Pressione a barra do ESPAÇO para começar.","Vais fechar e abrir ambos os punhos ou os pés, mediante te apareçam as setas "Para cima" ou "Para baixo", respetivamente. Pressione a barra do ESPAÇO para começar.",0,0,0,0,0,1,1,1,2,1,5,0,,,,,,,,,302.15995029999976,,,,,,,,,,,,,,,,,,,,302.1565421,302.15995029999976,302.15995029999976,306.1439470999999,306.1439640999997,306.1935883000001,306.1935883000001,310.1555530999999,306.1935883000001,306.1935883000001,,,,,,,,,,,,,,,,,,,,1,003,,2024-04-25_12h14.48.012,Motor Imagery,2024.1.1,None,2024-04-25 12h15.10.102337 +0100,
Imagens/right.png,Imagens/up.png,"Vais fechar e abrir o punho direito ou esquerdo, mediante te apareça as setas "Direita" ou "Esquerda". Pressione a barra do ESPAÇO para começar.","Vais fechar e abrir ambos os punhos ou os pés, mediante te apareçam as setas "Para cima" ou "Para baixo", respetivamente. Pressione a barra do ESPAÇO para começar.",0,0,0,0,0,1,1,1,3,0,6,0,,,,,,,,,310.15960989999985,,,,,,,,,,,,,,,,,,,,310.15585680000004,310.15960989999985,310.15960989999985,314.14526609999984,314.1452793999997,314.1907019,314.1907019,318.1570978,314.1907019,314.1907019,,,,,,,,,,,,,,,,,,,,1,003,,2024-04-25_12h14.48.012,Motor Imagery,2024.1.1,None,2024-04-25 12h15.10.102337 +0100,
Imagens/left.png,Imagens/down.png,"Vais imaginar o movimento de fechar e abrir o punho direito ou esquerdo, mediante te apareça as setas "Direita" ou "Esquerda". Pressione a barra do ESPAÇO para começar.","Vais imaginar o movimento de fechar e abrir ambos os punhos ou os pés, mediante te apareçam "Para cima" ou "Para baixo", respetivamente.  Pressione a barra do ESPAÇO para começar.",0,0,0,0,0,1,1,1,3,1,7,1,,,,,,,,,318.16092819999994,,,,,,,,,,,,,,,,,,,,318.1579892999998,318.16092819999994,318.16092819999994,322.14770899999985,322.1477233999999,322.4081991999997,322.4081991999997,326.15628419999985,322.4081991999997,322.4081991999997,,,,,,,,,,,,,,,,,,,,1,003,,2024-04-25_12h14.48.012,Motor Imagery,2024.1.1,None,2024-04-25 12h15.10.102337 +0100,
Imagens/left.png,Imagens/down.png,"Vais imaginar o movimento de fechar e abrir o punho direito ou esquerdo, mediante te apareça as setas "Direita" ou "Esquerda". Pressione a barra do ESPAÇO para começar.","Vais imaginar o movimento de fechar e abrir ambos os punhos ou os pés, mediante te apareçam "Para cima" ou "Para baixo", respetivamente.  Pressione a barra do ESPAÇO para começar.",0,0,0,0,0,1,1,1,4,0,8,1,,,,,,,,,326.1601986999999,,,,,,,,,,,,,,,,,,,,326.1565934999999,326.1601986999999,326.1601986999999,330.15958809999984,330.15960799999993,330.28468159999966,330.28468159999966,334.15741819999994,,,,,,,,,,,,,,,,,,,,,,1,003,,2024-04-25_12h14.48.012,Motor Imagery,2024.1.1,None,2024-04-25 12h15.10.102337 +0100,
Imagens/right.png,Imagens/up.png,"Vais fechar e abrir o punho direito ou esquerdo, mediante te apareça as setas "Direita" ou "Esquerda". Pressione a barra do ESPAÇO para começar.","Vais fechar e abrir ambos os punhos ou os pés, mediante te apareçam as setas "Para cima" ou "Para baixo", respetivamente. Pressione a barra do ESPAÇO para começar.",0,0,0,0,0,1,1,1,4,1,9,0,,,,,,,,,334.1614188999997,,,,,,,,,,,,,,,,,,,,334.15794159999996,334.1614188999997,334.1614188999997,338.1560479,338.1560614,338.2162407999999,338.2162407999999,342.1561901,,,,,,,,,,,,,,,,,,,,,,1,003,,2024-04-25_12h14.48.012,Motor Imagery,2024.1.1,None,2024-04-25 12h15.10.102337 +0100,
Imagens/left.png,Imagens/down.png,"Vais imaginar o movimento de fechar e abrir o punho direito ou esquerdo, mediante te apareça as setas "Direita" ou "Esquerda". Pressione a barra do ESPAÇO para começar.","Vais imaginar o movimento de fechar e abrir ambos os punhos ou os pés, mediante te apareçam "Para cima" ou "Para baixo", respetivamente.  Pressione a barra do ESPAÇO para começar.",0,0,0,0,0,1,1,1,5,0,10,1,,,,,,,,,342.1630777999999,,,,,,,,,,,,,,,,,,,,342.1565062999998,342.1630777999999,342.1630777999999,346.1482020999997,346.1482274,346.3989797999998,346.3989797999998,350.15590629999997,346.3989797999998,346.3989797999998,,,,,,,,,,,,,,,,,,,,1,003,,2024-04-25_12h14.48.012,Motor Imagery,2024.1.1,None,2024-04-25 12h15.10.102337 +0100,
Imagens/right.png,Imagens/up.png,"Vais fechar e abrir o punho direito ou esquerdo, mediante te apareça as setas "Direita" ou "Esquerda". Pressione a barra do ESPAÇO para começar.","Vais fechar e abrir ambos os punhos ou os pés, mediante te apareçam as setas "Para cima" ou "Para baixo", respetivamente. Pressione a barra do ESPAÇO para começar.",0,0,0,0,0,1,1,1,5,1,11,0,,,,,,,,,350.1594649999997,,,,,,,,,,,,,,,,,,,,350.1563167999998,350.1594649999997,350.1594649999997,354.14343740000004,354.14345430000003,354.192626,354.192626,358.16708709999966,354.192626,354.192626,,,,,,,,,,,,,,,,,,,,1,003,,2024-04-25_12h14.48.012,Motor Imagery,2024.1.1,None,2024-04-25 12h15.10.102337 +0100,
Imagens/left.png,Imagens/down.png,"Vais imaginar o movimento de fechar e abrir o punho direito ou esquerdo, mediante te apareça as setas "Direita" ou "Esquerda". Pressione a barra do ESPAÇO para começar.","Vais imaginar o movimento de fechar e abrir ambos os punhos ou os pés, mediante te apareçam "Para cima" ou "Para baixo", respetivamente.  Pressione a barra do ESPAÇO para começar.",0,0,0,0,0,1,1,1,6,0,12,1,,,,,,,,,358.1700047999998,,,,,,,,,,,,,,,,,,,,358.1675310999999,358.1700047999998,358.1700047999998,362.15342199999986,362.15345979999984,362.40955140000005,362.40955140000005,366.1558491999999,362.40955140000005,362.40955140000005,,,,,,,,,,,,,,,,,,,,1,003,,2024-04-25_12h14.48.012,Motor Imagery,2024.1.1,None,2024-04-25 12h15.10.102337 +0100,
Imagens/right.png,Imagens/up.png,"Vais fechar e abrir o punho direito ou esquerdo, mediante te apareça as setas "Direita" ou "Esquerda". Pressione a barra do ESPAÇO para começar.","Vais fechar e abrir ambos os punhos ou os pés, mediante te apareçam as setas "Para cima" ou "Para baixo", respetivamente. Pressione a barra do ESPAÇO para começar.",0,0,0,0,0,1,1,1,6,1,13,0,,,,,,,,,366.1627404000001,,,,,,,,,,,,,,,,,,,,366.15614559999995,366.1627404000001,366.1627404000001,370.15827820000004,370.1583093999998,370.2059546999999,370.2059546999999,374.15720280000005,,,,,,,,,,,,,,,,,,,,,,1,003,,2024-04-25_12h14.48.012,Motor Imagery,2024.1.1,None,2024-04-25 12h15.10.102337 +0100,
Imagens/left.png,Imagens/down.png,"Vais imaginar o movimento de fechar e abrir o punho direito ou esquerdo, mediante te apareça as setas "Direita" ou "Esquerda". Pressione a barra do ESPAÇO para começar.","Vais imaginar o movimento de fechar e abrir ambos os punhos ou os pés, mediante te apareçam "Para cima" ou "Para baixo", respetivamente.  Pressione a barra do ESPAÇO para começar.",0,0,0,0,0,1,1,1,7,0,14,1,,,,,,,,,374.16153369999984,,,,,,,,,,,,,,,,,,,,374.15764910000007,374.16153369999984,374.16153369999984,378.1451487999998,378.14516079999976,378.3944158999998,378.3944158999998,382.1538765,378.3944158999998,378.3944158999998,,,,,,,,,,,,,,,,,,,,1,003,,2024-04-25_12h14.48.012,Motor Imagery,2024.1.1,None,2024-04-25 12h15.10.102337 +0100,
Imagens/right.png,Imagens/up.png,"Vais fechar e abrir o punho direito ou esquerdo, mediante te apareça as setas "Direita" ou "Esquerda". Pressione a barra do ESPAÇO para começar.","Vais fechar e abrir ambos os punhos ou os pés, mediante te apareçam as setas "Para cima" ou "Para baixo", respetivamente. Pressione a barra do ESPAÇO para começar.",0,0,0,0,0,1,1,1,7,1,15,0,,,,,,,,,382.15641559999995,,,,,,,,,,,,,,,,,,,,382.1541715999997,382.15641559999995,382.15641559999995,386.1406242999997,386.1406364999998,386.1972949000001,386.1972949000001,390.15743759999987,386.1972949000001,386.1972949000001,,,,,,,,,,,,,,,,,,,,1,003,,2024-04-25_12h14.48.012,Motor Imagery,2024.1.1,None,2024-04-25 12h15.10.102337 +0100,
Imagens/left.png,Imagens/down.png,"Vais imaginar o movimento de fechar e abrir o punho direito ou esquerdo, mediante te apareça as setas "Direita" ou "Esquerda". Pressione a barra do ESPAÇO para começar.","Vais imaginar o movimento de fechar e abrir ambos os punhos ou os pés, mediante te apareçam "Para cima" ou "Para baixo", respetivamente.  Pressione a barra do ESPAÇO para começar.",0,0,0,0,0,1,1,1,8,0,16,1,,,,,,,,,390.16133149999996,,,,,,,,,,,,,,,,,,,,390.1580463999999,390.16133149999996,390.16133149999996,394.1476521999998,394.1476668999999,394.40463610000006,394.40463610000006,398.16118359999973,394.40463610000006,394.40463610000006,,,,,,,,,,,,,,,,,,,,1,003,,2024-04-25_12h14.48.012,Motor Imagery,2024.1.1,None,2024-04-25 12h15.10.102337 +0100,
Imagens/right.png,Imagens/up.png,"Vais fechar e abrir o punho direito ou esquerdo, mediante te apareça as setas "Direita" ou "Esquerda". Pressione a barra do ESPAÇO para começar.","Vais fechar e abrir ambos os punhos ou os pés, mediante te apareçam as setas "Para cima" ou "Para baixo", respetivamente. Pressione a barra do ESPAÇO para começar.",0,0,0,0,0,1,1,1,8,1,17,0,,,,,,,,,398.17774340000005,,,,,,,,,,,,,,,,,,,,398.16148269999985,398.17774340000005,398.17774340000005,402.1581366999999,402.1581560999998,402.2279085,402.2279085,406.1558633999998,,,,,,,,,,,,,,,,,,,,,,1,003,,2024-04-25_12h14.48.012,Motor Imagery,2024.1.1,None,2024-04-25 12h15.10.102337 +0100,
Imagens/right.png,Imagens/up.png,"Vais fechar e abrir o punho direito ou esquerdo, mediante te apareça as setas "Direita" ou "Esquerda". Pressione a barra do ESPAÇO para começar.","Vais fechar e abrir ambos os punhos ou os pés, mediante te apareçam as setas "Para cima" ou "Para baixo", respetivamente. Pressione a barra do ESPAÇO para começar.",0,0,0,0,0,1,1,1,9,0,18,0,,,,,,,,,406.1648952999999,,,,,,,,,,,,,,,,,,,,406.15612169999986,406.1648952999999,406.1648952999999,410.15184789999967,410.1518897000001,410.1679141999998,410.1679141999998,414.1575914,410.1679141999998,410.1679141999998,,,,,,,,,,,,,,,,,,,,1,003,,2024-04-25_12h14.48.012,Motor Imagery,2024.1.1,None,2024-04-25 12h15.10.102337 +0100,
Imagens/left.png,Imagens/down.png,"Vais imaginar o movimento de fechar e abrir o punho direito ou esquerdo, mediante te apareça as setas "Direita" ou "Esquerda". Pressione a barra do ESPAÇO para começar.","Vais imaginar o movimento de fechar e abrir ambos os punhos ou os pés, mediante te apareçam "Para cima" ou "Para baixo", respetivamente.  Pressione a barra do ESPAÇO para começar.",0,0,0,0,0,1,1,1,9,1,19,1,,,,,,,,,414.16054170000007,,,,,,,,,,,,,,,,,,,,414.15805539999974,414.16054170000007,414.16054170000007,418.15182159999995,418.1518575,418.3995117999998,418.3995117999998,422.1562022999997,418.3995117999998,418.3995117999998,,,,,,,,,,,,,,,,,,,,1,003,,2024-04-25_12h14.48.012,Motor Imagery,2024.1.1,None,2024-04-25 12h15.10.102337 +0100,
Imagens/right.png,Imagens/up.png,"Vais fechar e abrir o punho direito ou esquerdo, mediante te apareça as setas "Direita" ou "Esquerda". Pressione a barra do ESPAÇO para começar.","Vais fechar e abrir ambos os punhos ou os pés, mediante te apareçam as setas "Para cima" ou "Para baixo", respetivamente. Pressione a barra do ESPAÇO para começar.",0,0,0,0,0,1,1,1,10,0,20,0,,,,,,,,,422.1601805999999,,,,,,,,,,,,,,,,,,,,422.1565353000001,422.1601805999999,422.1601805999999,426.1447871999999,426.1448012999999,426.1912216999999,426.1912216999999,430.15934609999977,426.1912216999999,426.1912216999999,,,,,,,,,,,,,,,,,,,,1,003,,2024-04-25_12h14.48.012,Motor Imagery,2024.1.1,None,2024-04-25 12h15.10.102337 +0100,
Imagens/left.png,Imagens/down.png,"Vais imaginar o movimento de fechar e abrir o punho direito ou esquerdo, mediante te apareça as setas "Direita" ou "Esquerda". Pressione a barra do ESPAÇO para começar.","Vais imaginar o movimento de fechar e abrir ambos os punhos ou os pés, mediante te apareçam "Para cima" ou "Para baixo", respetivamente.  Pressione a barra do ESPAÇO para começar.",0,0,0,0,0,1,1,1,10,1,21,1,,,,,,,,,430.1683516999997,,,,,,,,,,,,,,,,,,,,430.15999969999984,430.1683516999997,430.1683516999997,434.15212359999987,434.1521386999998,434.38967890000004,434.38967890000004,438.1558778999997,434.38967890000004,434.38967890000004,,,,,,,,,,,,,,,,,,,,1,003,,2024-04-25_12h14.48.012,Motor Imagery,2024.1.1,None,2024-04-25 12h15.10.102337 +0100,
Imagens/right.png,Imagens/up.png,"Vais fechar e abrir o punho direito ou esquerdo, mediante te apareça as setas "Direita" ou "Esquerda". Pressione a barra do ESPAÇO para começar.","Vais fechar e abrir ambos os punhos ou os pés, mediante te apareçam as setas "Para cima" ou "Para baixo", respetivamente. Pressione a barra do ESPAÇO para começar.",0,0,0,0,0,1,1,1,11,0,22,0,,,,,,,,,438.16018570000006,,,,,,,,,,,,,,,,,,,,438.15618719999975,438.16018570000006,438.16018570000006,442.1441861999997,442.1441993999997,442.1955208999998,442.1955208999998,446.15422899999976,442.1955208999998,442.1955208999998,,,,,,,,,,,,,,,,,,,,1,003,,2024-04-25_12h14.48.012,Motor Imagery,2024.1.1,None,2024-04-25 12h15.10.102337 +0100,
Imagens/left.png,Imagens/down.png,"Vais imaginar o movimento de fechar e abrir o punho direito ou esquerdo, mediante te apareça as setas "Direita" ou "Esquerda". Pressione a barra do ESPAÇO para começar.","Vais imaginar o movimento de fechar e abrir ambos os punhos ou os pés, mediante te apareçam "Para cima" ou "Para baixo", respetivamente.  Pressione a barra do ESPAÇO para começar.",0,0,0,0,0,1,1,1,11,1,23,1,,,,,,,,,446.1571478999999,,,,,,,,,,,,,,,,,,,,446.15497349999987,446.1571478999999,446.1571478999999,450.1429119999998,450.1429641999998,450.38066449999997,450.38066449999997,454.15625629999977,450.38066449999997,450.38066449999997,,,,,,,,,,,,,,,,,,,,1,003,,2024-04-25_12h14.48.012,Motor Imagery,2024.1.1,None,2024-04-25 12h15.10.102337 +0100,
Imagens/right.png,Imagens/up.png,"Vais fechar e abrir o punho direito ou esquerdo, mediante te apareça as setas "Direita" ou "Esquerda". Pressione a barra do ESPAÇO para começar.","Vais fechar e abrir ambos os punhos ou os pés, mediante te apareçam as setas "Para cima" ou "Para baixo", respetivamente. Pressione a barra do ESPAÇO para começar.",0,0,0,0,0,1,1,1,12,0,24,0,,,,,,,,,454.16452059999983,,,,,,,,,,,,,,,,,,,,454.1566177999998,454.16452059999983,454.16452059999983,458.14774050000005,458.1477915999999,458.21230119999973,458.21230119999973,462.1555764999998,458.21230119999973,458.21230119999973,,,,,,,,,,,,,,,,,,,,1,003,,2024-04-25_12h14.48.012,Motor Imagery,2024.1.1,None,2024-04-25 12h15.10.102337 +0100,
Imagens/left.png,Imagens/down.png,"Vais imaginar o movimento de fechar e abrir o punho direito ou esquerdo, mediante te apareça as setas "Direita" ou "Esquerda". Pressione a barra do ESPAÇO para começar.","Vais imaginar o movimento de fechar e abrir ambos os punhos ou os pés, mediante te apareçam "Para cima" ou "Para baixo", respetivamente.  Pressione a barra do ESPAÇO para começar.",0,0,0,0,0,1,1,1,12,1,25,1,,,,,,,,,462.1596113999999,,,,,,,,,,,,,,,,,,,,462.15585710000005,462.1596113999999,462.1596113999999,466.1429860999997,466.1430000999999,466.39635439999984,466.39635439999984,470.15589739999996,466.39635439999984,466.39635439999984,,,,,,,,,,,,,,,,,,,,1,003,,2024-04-25_12h14.48.012,Motor Imagery,2024.1.1,None,2024-04-25 12h15.10.102337 +0100,
Imagens/left.png,Imagens/down.png,"Vais imaginar o movimento de fechar e abrir o punho direito ou esquerdo, mediante te apareça as setas "Direita" ou "Esquerda". Pressione a barra do ESPAÇO para começar.","Vais imaginar o movimento de fechar e abrir ambos os punhos ou os pés, mediante te apareçam "Para cima" ou "Para baixo", respetivamente.  Pressione a barra do ESPAÇO para começar.",0,0,0,0,0,1,1,1,13,0,26,1,,,,,,,,,470.1601793,,,,,,,,,,,,,,,,,,,,470.156215,470.1601793,470.1601793,474.1440528999997,474.14406599999984,474.2402496999998,474.2402496999998,478.1634687999999,474.2402496999998,474.2402496999998,,,,,,,,,,,,,,,,,,,,1,003,,2024-04-25_12h14.48.012,Motor Imagery,2024.1.1,None,2024-04-25 12h15.10.102337 +0100,
Imagens/right.png,Imagens/up.png,"Vais fechar e abrir o punho direito ou esquerdo, mediante te apareça as setas "Direita" ou "Esquerda". Pressione a barra do ESPAÇO para começar.","Vais fechar e abrir ambos os punhos ou os pés, mediante te apareçam as setas "Para cima" ou "Para baixo", respetivamente. Pressione a barra do ESPAÇO para começar.",0,0,0,0,0,1,1,1,13,1,27,0,,,,,,,,,478.17182269999967,,,,,,,,,,,,,,,,,,,,478.1642671999998,478.17182269999967,478.17182269999967,482.1549547999998,482.1549679999998,482.2026791999997,482.2026791999997,486.15601689999994,,,,,,,,,,,,,,,,,,,,,,1,003,,2024-04-25_12h14.48.012,Motor Imagery,2024.1.1,None,2024-04-25 12h15.10.102337 +0100,
Imagens/left.png,Imagens/down.png,"Vais imaginar o movimento de fechar e abrir o punho direito ou esquerdo, mediante te apareça as setas "Direita" ou "Esquerda". Pressione a barra do ESPAÇO para começar.","Vais imaginar o movimento de fechar e abrir ambos os punhos ou os pés, mediante te apareçam "Para cima" ou "Para baixo", respetivamente.  Pressione a barra do ESPAÇO para começar.",0,0,0,0,0,1,1,1,14,0,28,1,,,,,,,,,486.1607905000001,,,,,,,,,,,,,,,,,,,,486.1562793999997,486.1607905000001,486.1607905000001,490.1506681999999,490.15068089999977,490.3766501,490.3766501,494.1556109999997,490.3766501,490.3766501,,,,,,,,,,,,,,,,,,,,1,003,,2024-04-25_12h14.48.012,Motor Imagery,2024.1.1,None,2024-04-25 12h15.10.102337 +0100,
Imagens/right.png,Imagens/up.png,"Vais fechar e abrir o punho direito ou esquerdo, mediante te apareça as setas "Direita" ou "Esquerda". Pressione a barra do ESPAÇO para começar.","Vais fechar e abrir ambos os punhos ou os pés, mediante te apareçam as setas "Para cima" ou "Para baixo", respetivamente. Pressione a barra do ESPAÇO para começar.",0,0,0,0,0,1,1,1,14,1,29,0,,,,,,,,,494.1596013999997,,,,,,,,,,,,,,,,,,,,494.1558904999997,494.1596013999997,494.1596013999997,498.1449176000001,498.1449346999998,498.19352249999974,498.19352249999974,502.15612919999967,498.19352249999974,498.19352249999974,,,,,,,,,,,,,,,,,,,,1,003,,2024-04-25_12h14.48.012,Motor Imagery,2024.1.1,None,2024-04-25 12h15.10.102337 +0100,
Imagens/left.png,Imagens/down.png,"Vais imaginar o movimento de fechar e abrir o punho direito ou esquerdo, mediante te apareça as setas "Direita" ou "Esquerda". Pressione a barra do ESPAÇO para começar.","Vais imaginar o movimento de fechar e abrir ambos os punhos ou os pés, mediante te apareçam "Para cima" ou "Para baixo", respetivamente.  Pressione a barra do ESPAÇO para começar.",0,0,0,0,0,1,1,1,,,,,,,,,,,,,,,,,,,,,,,,,,,,,,,,,,,,,,,,,,,,,,,,,,,,,,,,,,,,,,1,003,,2024-04-25_12h14.48.012,Motor Imagery,2024.1.1,None,2024-04-25 12h15.10.102337 +0100,
Imagens/right.png,Imagens/up.png,"Vais fechar e abrir o punho direito ou esquerdo, mediante te apareça as setas "Direita" ou "Esquerda". Pressione a barra do ESPAÇO para começar.","Vais fechar e abrir ambos os punhos ou os pés, mediante te apareçam as setas "Para cima" ou "Para baixo", respetivamente. Pressione a barra do ESPAÇO para começar.",0,0,0,0,,,,,,,,,0,0,0,0,0,0,0,0,508.2226301999999,,,,,,,,,,,,,,,,507.22063009999965,507.22372889999997,508.2226301999999,508.2158856000001,508.22023839999974,508.2226301999999,508.2226301999999,512.2060339,,,,,512.4474614000001,512.4474614000001,502.16028749999987,502.17522389999976,502.17522389999976,507.22025459999986,space,507.2151844,None,512.2060466999997,512.4474614000001,512.4474614000001,516.2259658999997,,,,,,,,,1,003,,2024-04-25_12h14.48.012,Motor Imagery,2024.1.1,None,2024-04-25 12h15.10.102337 +0100,
Imagens/left.png,Imagens/down.png,"Vais imaginar o movimento de fechar e abrir o punho direito ou esquerdo, mediante te apareça as setas "Direita" ou "Esquerda". Pressione a barra do ESPAÇO para começar.","Vais imaginar o movimento de fechar e abrir ambos os punhos ou os pés, mediante te apareçam "Para cima" ou "Para baixo", respetivamente.  Pressione a barra do ESPAÇO para começar.",0,0,0,0,,,,,,,,,0,0,0,0,0,1,1,1,516.2300062999998,,,,,,,,,,,,,,,,,,,,516.2264319999999,516.2300062999998,516.2300062999998,520.2163379999997,,,,,520.2821089999998,520.2821089999998,,,,,,,,520.2163502999997,520.2821089999998,520.2821089999998,524.2249664999999,,,,,,,,,1,003,,2024-04-25_12h14.48.012,Motor Imagery,2024.1.1,None,2024-04-25 12h15.10.102337 +0100,
Imagens/left.png,Imagens/down.png,"Vais imaginar o movimento de fechar e abrir o punho direito ou esquerdo, mediante te apareça as setas "Direita" ou "Esquerda". Pressione a barra do ESPAÇO para começar.","Vais imaginar o movimento de fechar e abrir ambos os punhos ou os pés, mediante te apareçam "Para cima" ou "Para baixo", respetivamente.  Pressione a barra do ESPAÇO para começar.",0,0,0,0,,,,,,,,,0,0,0,0,1,0,2,1,524.2280624,,,,,,,,,,,,,,,,,,,,524.2253873999998,524.2280624,524.2280624,528.214344,,,,,528.2718391999997,528.2718391999997,,,,,,,,528.2143596000001,528.2718391999997,528.2718391999997,532.2224315999997,,,,,,,,,1,003,,2024-04-25_12h14.48.012,Motor Imagery,2024.1.1,None,2024-04-25 12h15.10.102337 +0100,
Imagens/right.png,Imagens/up.png,"Vais fechar e abrir o punho direito ou esquerdo, mediante te apareça as setas "Direita" ou "Esquerda". Pressione a barra do ESPAÇO para começar.","Vais fechar e abrir ambos os punhos ou os pés, mediante te apareçam as setas "Para cima" ou "Para baixo", respetivamente. Pressione a barra do ESPAÇO para começar.",0,0,0,0,,,,,,,,,0,0,0,0,1,1,3,0,532.2262796,,,,,,,,,,,,,,,,,,,,532.2227407999999,532.2262796,532.2262796,536.2103062000001,,,,,536.4536413999999,536.4536413999999,,,,,,,,536.2103216,536.4536413999999,536.4536413999999,540.2240572999999,,,,,,,,,1,003,,2024-04-25_12h14.48.012,Motor Imagery,2024.1.1,None,2024-04-25 12h15.10.102337 +0100,
Imagens/right.png,Imagens/up.png,"Vais fechar e abrir o punho direito ou esquerdo, mediante te apareça as setas "Direita" ou "Esquerda". Pressione a barra do ESPAÇO para começar.","Vais fechar e abrir ambos os punhos ou os pés, mediante te apareçam as setas "Para cima" ou "Para baixo", respetivamente. Pressione a barra do ESPAÇO para começar.",0,0,0,0,,,,,,,,,0,0,0,0,2,0,4,0,540.2265103999998,,,,,,,,,,,,,,,,,,,,540.2243515,540.2265103999998,540.2265103999998,544.2125674999997,,,,,544.3370391999997,544.3370391999997,,,,,,,,544.2125889999998,544.3370391999997,544.3370391999997,548.2244344999999,,,,,,,,,1,003,,2024-04-25_12h14.48.012,Motor Imagery,2024.1.1,None,2024-04-25 12h15.10.102337 +0100,
Imagens/left.png,Imagens/down.png,"Vais imaginar o movimento de fechar e abrir o punho direito ou esquerdo, mediante te apareça as setas "Direita" ou "Esquerda". Pressione a barra do ESPAÇO para começar.","Vais imaginar o movimento de fechar e abrir ambos os punhos ou os pés, mediante te apareçam "Para cima" ou "Para baixo", respetivamente.  Pressione a barra do ESPAÇO para começar.",0,0,0,0,,,,,,,,,0,0,0,0,2,1,5,1,548.2279171999999,,,,,,,,,,,,,,,,,,,,548.2251216,548.2279171999999,548.2279171999999,552.2156043999998,,,,,552.2699511999999,552.2699511999999,,,,,,,,552.215655,552.2699511999999,552.2699511999999,556.2226206999999,,,,,,,,,1,003,,2024-04-25_12h14.48.012,Motor Imagery,2024.1.1,None,2024-04-25 12h15.10.102337 +0100,
Imagens/left.png,Imagens/down.png,"Vais imaginar o movimento de fechar e abrir o punho direito ou esquerdo, mediante te apareça as setas "Direita" ou "Esquerda". Pressione a barra do ESPAÇO para começar.","Vais imaginar o movimento de fechar e abrir ambos os punhos ou os pés, mediante te apareçam "Para cima" ou "Para baixo", respetivamente.  Pressione a barra do ESPAÇO para começar.",0,0,0,0,,,,,,,,,0,0,0,0,3,0,6,1,556.2280311999998,,,,,,,,,,,,,,,,,,,,556.2229078,556.2280311999998,556.2280311999998,560.2145734999999,,,,,560.2551159999998,560.2551159999998,,,,,,,,560.2145879,560.2551159999998,560.2551159999998,564.2273744999998,,,,,,,,,1,003,,2024-04-25_12h14.48.012,Motor Imagery,2024.1.1,None,2024-04-25 12h15.10.102337 +0100,
Imagens/right.png,Imagens/up.png,"Vais fechar e abrir o punho direito ou esquerdo, mediante te apareça as setas "Direita" ou "Esquerda". Pressione a barra do ESPAÇO para começar.","Vais fechar e abrir ambos os punhos ou os pés, mediante te apareçam as setas "Para cima" ou "Para baixo", respetivamente. Pressione a barra do ESPAÇO para começar.",0,0,0,0,,,,,,,,,0,0,0,0,3,1,7,0,564.2321707000001,,,,,,,,,,,,,,,,,,,,564.2278372999999,564.2321707000001,564.2321707000001,568.2184591999999,,,,,568.4624223999999,568.4624223999999,,,,,,,,568.2184837999998,568.4624223999999,568.4624223999999,572.2227174999998,,,,,,,,,1,003,,2024-04-25_12h14.48.012,Motor Imagery,2024.1.1,None,2024-04-25 12h15.10.102337 +0100,
Imagens/left.png,Imagens/down.png,"Vais imaginar o movimento de fechar e abrir o punho direito ou esquerdo, mediante te apareça as setas "Direita" ou "Esquerda". Pressione a barra do ESPAÇO para começar.","Vais imaginar o movimento de fechar e abrir ambos os punhos ou os pés, mediante te apareçam "Para cima" ou "Para baixo", respetivamente.  Pressione a barra do ESPAÇO para começar.",0,0,0,0,,,,,,,,,0,0,0,0,4,0,8,1,572.2277349000001,,,,,,,,,,,,,,,,,,,,572.2230031999998,572.2277349000001,572.2277349000001,576.2105784,,,,,576.2655402,576.2655402,,,,,,,,576.2105925999999,576.2655402,576.2655402,580.2222678999997,,,,,,,,,1,003,,2024-04-25_12h14.48.012,Motor Imagery,2024.1.1,None,2024-04-25 12h15.10.102337 +0100,
Imagens/right.png,Imagens/up.png,"Vais fechar e abrir o punho direito ou esquerdo, mediante te apareça as setas "Direita" ou "Esquerda". Pressione a barra do ESPAÇO para começar.","Vais fechar e abrir ambos os punhos ou os pés, mediante te apareçam as setas "Para cima" ou "Para baixo", respetivamente. Pressione a barra do ESPAÇO para começar.",0,0,0,0,,,,,,,,,0,0,0,0,4,1,9,0,580.2265097,,,,,,,,,,,,,,,,,,,,580.2225669999998,580.2265097,580.2265097,584.2117574999997,,,,,584.4436784999998,584.4436784999998,,,,,,,,584.2117742,584.4436784999998,584.4436784999998,588.2327679,,,,,,,,,1,003,,2024-04-25_12h14.48.012,Motor Imagery,2024.1.1,None,2024-04-25 12h15.10.102337 +0100,
Imagens/left.png,Imagens/down.png,"Vais imaginar o movimento de fechar e abrir o punho direito ou esquerdo, mediante te apareça as setas "Direita" ou "Esquerda". Pressione a barra do ESPAÇO para começar.","Vais imaginar o movimento de fechar e abrir ambos os punhos ou os pés, mediante te apareçam "Para cima" ou "Para baixo", respetivamente.  Pressione a barra do ESPAÇO para começar.",0,0,0,0,,,,,,,,,0,0,0,0,5,0,10,1,588.2365148999997,,,,,,,,,,,,,,,,,,,,588.2330874999998,588.2365148999997,588.2365148999997,592.2230593999998,,,,,,,,,,,,,,592.2230715000001,592.2756762999998,592.2756762999998,596.2361817000001,,,,,,,,,1,003,,2024-04-25_12h14.48.012,Motor Imagery,2024.1.1,None,2024-04-25 12h15.10.102337 +0100,
Imagens/right.png,Imagens/up.png,"Vais fechar e abrir o punho direito ou esquerdo, mediante te apareça as setas "Direita" ou "Esquerda". Pressione a barra do ESPAÇO para começar.","Vais fechar e abrir ambos os punhos ou os pés, mediante te apareçam as setas "Para cima" ou "Para baixo", respetivamente. Pressione a barra do ESPAÇO para começar.",0,0,0,0,,,,,,,,,0,0,0,0,5,1,11,0,596.2408528999999,,,,,,,,,,,,,,,,,,,,596.2366637999999,596.2408528999999,596.2408528999999,600.2268959999997,,,,,,,,,,,,,,600.2269157000001,600.4642970999998,600.4642970999998,604.2229275,,,,,,,,,1,003,,2024-04-25_12h14.48.012,Motor Imagery,2024.1.1,None,2024-04-25 12h15.10.102337 +0100,
Imagens/right.png,Imagens/up.png,"Vais fechar e abrir o punho direito ou esquerdo, mediante te apareça as setas "Direita" ou "Esquerda". Pressione a barra do ESPAÇO para começar.","Vais fechar e abrir ambos os punhos ou os pés, mediante te apareçam as setas "Para cima" ou "Para baixo", respetivamente. Pressione a barra do ESPAÇO para começar.",0,0,0,0,,,,,,,,,0,0,0,0,6,0,12,0,604.2267459,,,,,,,,,,,,,,,,,,,,604.2232294999999,604.2267459,604.2267459,608.2108926999999,,,,,608.2738676999998,608.2738676999998,,,,,,,,608.2109055999999,608.2738676999998,608.2738676999998,612.2229041,,,,,,,,,1,003,,2024-04-25_12h14.48.012,Motor Imagery,2024.1.1,None,2024-04-25 12h15.10.102337 +0100,
Imagens/left.png,Imagens/down.png,"Vais imaginar o movimento de fechar e abrir o punho direito ou esquerdo, mediante te apareça as setas "Direita" ou "Esquerda". Pressione a barra do ESPAÇO para começar.","Vais imaginar o movimento de fechar e abrir ambos os punhos ou os pés, mediante te apareçam "Para cima" ou "Para baixo", respetivamente.  Pressione a barra do ESPAÇO para começar.",0,0,0,0,,,,,,,,,0,0,0,0,6,1,13,1,612.2280957999997,,,,,,,,,,,,,,,,,,,,612.2231797999998,612.2280957999997,612.2280957999997,616.2113807000001,,,,,616.2662279000001,616.2662279000001,,,,,,,,616.2113947999997,616.2662279000001,616.2662279000001,620.2245988,,,,,,,,,1,003,,2024-04-25_12h14.48.012,Motor Imagery,2024.1.1,None,2024-04-25 12h15.10.102337 +0100,
Imagens/right.png,Imagens/up.png,"Vais fechar e abrir o punho direito ou esquerdo, mediante te apareça as setas "Direita" ou "Esquerda". Pressione a barra do ESPAÇO para começar.","Vais fechar e abrir ambos os punhos ou os pés, mediante te apareçam as setas "Para cima" ou "Para baixo", respetivamente. Pressione a barra do ESPAÇO para começar.",0,0,0,0,,,,,,,,,0,0,0,0,7,0,14,0,620.2276183999998,,,,,,,,,,,,,,,,,,,,620.2248737999998,620.2276183999998,620.2276183999998,624.2161152999997,,,,,624.4364317,624.4364317,,,,,,,,624.2161456999997,624.4364317,624.4364317,628.2229447999998,,,,,,,,,1,003,,2024-04-25_12h14.48.012,Motor Imagery,2024.1.1,None,2024-04-25 12h15.10.102337 +0100,
Imagens/left.png,Imagens/down.png,"Vais imaginar o movimento de fechar e abrir o punho direito ou esquerdo, mediante te apareça as setas "Direita" ou "Esquerda". Pressione a barra do ESPAÇO para começar.","Vais imaginar o movimento de fechar e abrir ambos os punhos ou os pés, mediante te apareçam "Para cima" ou "Para baixo", respetivamente.  Pressione a barra do ESPAÇO para começar.",0,0,0,0,,,,,,,,,0,0,0,0,7,1,15,1,628.2268669,,,,,,,,,,,,,,,,,,,,628.2232301999998,628.2268669,628.2268669,632.2099932000001,,,,,632.2624486,632.2624486,,,,,,,,632.2100068999998,632.2624486,632.2624486,636.2227233999997,,,,,,,,,1,003,,2024-04-25_12h14.48.012,Motor Imagery,2024.1.1,None,2024-04-25 12h15.10.102337 +0100,
Imagens/right.png,Imagens/up.png,"Vais fechar e abrir o punho direito ou esquerdo, mediante te apareça as setas "Direita" ou "Esquerda". Pressione a barra do ESPAÇO para começar.","Vais fechar e abrir ambos os punhos ou os pés, mediante te apareçam as setas "Para cima" ou "Para baixo", respetivamente. Pressione a barra do ESPAÇO para começar.",0,0,0,0,,,,,,,,,0,0,0,0,8,0,16,0,636.2266936000001,,,,,,,,,,,,,,,,,,,,636.2230741999997,636.2266936000001,636.2266936000001,640.2101112999999,,,,,640.5309960999998,640.5309960999998,,,,,,,,640.2101260999998,640.5309960999998,640.5309960999998,644.2229213999999,,,,,,,,,1,003,,2024-04-25_12h14.48.012,Motor Imagery,2024.1.1,None,2024-04-25 12h15.10.102337 +0100,
Imagens/left.png,Imagens/down.png,"Vais imaginar o movimento de fechar e abrir o punho direito ou esquerdo, mediante te apareça as setas "Direita" ou "Esquerda". Pressione a barra do ESPAÇO para começar.","Vais imaginar o movimento de fechar e abrir ambos os punhos ou os pés, mediante te apareçam "Para cima" ou "Para baixo", respetivamente.  Pressione a barra do ESPAÇO para começar.",0,0,0,0,,,,,,,,,0,0,0,0,8,1,17,1,644.2268200999997,,,,,,,,,,,,,,,,,,,,644.2233306999997,644.2268200999997,644.2268200999997,648.2109877999997,,,,,648.2690674,648.2690674,,,,,,,,648.2110248999998,648.2690674,648.2690674,652.2330790000001,,,,,,,,,1,003,,2024-04-25_12h14.48.012,Motor Imagery,2024.1.1,None,2024-04-25 12h15.10.102337 +0100,
Imagens/left.png,Imagens/down.png,"Vais imaginar o movimento de fechar e abrir o punho direito ou esquerdo, mediante te apareça as setas "Direita" ou "Esquerda". Pressione a barra do ESPAÇO para começar.","Vais imaginar o movimento de fechar e abrir ambos os punhos ou os pés, mediante te apareçam "Para cima" ou "Para baixo", respetivamente.  Pressione a barra do ESPAÇO para começar.",0,0,0,0,,,,,,,,,0,0,0,0,9,0,18,1,652.2363633,,,,,,,,,,,,,,,,,,,,652.2335438,652.2363633,652.2363633,656.2192669000001,,,,,656.2752608999999,656.2752608999999,,,,,,,,656.2192811999998,656.2752608999999,656.2752608999999,660.2236078000001,,,,,,,,,1,003,,2024-04-25_12h14.48.012,Motor Imagery,2024.1.1,None,2024-04-25 12h15.10.102337 +0100,
Imagens/right.png,Imagens/up.png,"Vais fechar e abrir o punho direito ou esquerdo, mediante te apareça as setas "Direita" ou "Esquerda". Pressione a barra do ESPAÇO para começar.","Vais fechar e abrir ambos os punhos ou os pés, mediante te apareçam as setas "Para cima" ou "Para baixo", respetivamente. Pressione a barra do ESPAÇO para começar.",0,0,0,0,,,,,,,,,0,0,0,0,9,1,19,0,660.2274311000001,,,,,,,,,,,,,,,,,,,,660.2239147,660.2274311000001,660.2274311000001,664.2131380999999,,,,,664.6102698,664.6102698,,,,,,,,664.2131587999997,664.6102698,664.6102698,668.2231131999997,,,,,,,,,1,003,,2024-04-25_12h14.48.012,Motor Imagery,2024.1.1,None,2024-04-25 12h15.10.102337 +0100,
Imagens/left.png,Imagens/down.png,"Vais imaginar o movimento de fechar e abrir o punho direito ou esquerdo, mediante te apareça as setas "Direita" ou "Esquerda". Pressione a barra do ESPAÇO para começar.","Vais imaginar o movimento de fechar e abrir ambos os punhos ou os pés, mediante te apareçam "Para cima" ou "Para baixo", respetivamente.  Pressione a barra do ESPAÇO para começar.",0,0,0,0,,,,,,,,,0,0,0,0,10,0,20,1,668.2269560999998,,,,,,,,,,,,,,,,,,,,668.2233852999998,668.2269560999998,668.2269560999998,672.2107591999998,,,,,672.2593130999999,672.2593130999999,,,,,,,,672.2107750999999,672.2593130999999,672.2593130999999,676.2231389999997,,,,,,,,,1,003,,2024-04-25_12h14.48.012,Motor Imagery,2024.1.1,None,2024-04-25 12h15.10.102337 +0100,
Imagens/right.png,Imagens/up.png,"Vais fechar e abrir o punho direito ou esquerdo, mediante te apareça as setas "Direita" ou "Esquerda". Pressione a barra do ESPAÇO para começar.","Vais fechar e abrir ambos os punhos ou os pés, mediante te apareçam as setas "Para cima" ou "Para baixo", respetivamente. Pressione a barra do ESPAÇO para começar.",0,0,0,0,,,,,,,,,0,0,0,0,10,1,21,0,676.2460578,,,,,,,,,,,,,,,,,,,,676.2234991,676.2460578,676.2460578,680.2227266999998,,,,,,,,,,,,,,680.2227389999998,680.4589748999997,680.4589748999997,684.2280123,,,,,,,,,1,003,,2024-04-25_12h14.48.012,Motor Imagery,2024.1.1,None,2024-04-25 12h15.10.102337 +0100,
Imagens/left.png,Imagens/down.png,"Vais imaginar o movimento de fechar e abrir o punho direito ou esquerdo, mediante te apareça as setas "Direita" ou "Esquerda". Pressione a barra do ESPAÇO para começar.","Vais imaginar o movimento de fechar e abrir ambos os punhos ou os pés, mediante te apareçam "Para cima" ou "Para baixo", respetivamente.  Pressione a barra do ESPAÇO para começar.",0,0,0,0,,,,,,,,,0,0,0,0,11,0,22,1,684.2318754999997,,,,,,,,,,,,,,,,,,,,684.2288813,684.2318754999997,684.2318754999997,688.2155519999997,,,,,688.2810485,688.2810485,,,,,,,,688.2155903999997,688.2810485,688.2810485,692.2234522999997,,,,,,,,,1,003,,2024-04-25_12h14.48.012,Motor Imagery,2024.1.1,None,2024-04-25 12h15.10.102337 +0100,
Imagens/right.png,Imagens/up.png,"Vais fechar e abrir o punho direito ou esquerdo, mediante te apareça as setas "Direita" ou "Esquerda". Pressione a barra do ESPAÇO para começar.","Vais fechar e abrir ambos os punhos ou os pés, mediante te apareçam as setas "Para cima" ou "Para baixo", respetivamente. Pressione a barra do ESPAÇO para começar.",0,0,0,0,,,,,,,,,0,0,0,0,11,1,23,0,692.2267446000001,,,,,,,,,,,,,,,,,,,,692.2237476,692.2267446000001,692.2267446000001,696.2118470999999,,,,,696.4554730999998,696.4554730999998,,,,,,,,696.2118627999998,696.4554730999998,696.4554730999998,700.2255826,,,,,,,,,1,003,,2024-04-25_12h14.48.012,Motor Imagery,2024.1.1,None,2024-04-25 12h15.10.102337 +0100,
Imagens/left.png,Imagens/down.png,"Vais imaginar o movimento de fechar e abrir o punho direito ou esquerdo, mediante te apareça as setas "Direita" ou "Esquerda". Pressione a barra do ESPAÇO para começar.","Vais imaginar o movimento de fechar e abrir ambos os punhos ou os pés, mediante te apareçam "Para cima" ou "Para baixo", respetivamente.  Pressione a barra do ESPAÇO para começar.",0,0,0,0,,,,,,,,,0,0,0,0,12,0,24,1,700.2348732,,,,,,,,,,,,,,,,,,,,700.2261119,700.2348732,700.2348732,704.2184379,,,,,704.2857457999999,704.2857457999999,,,,,,,,704.2184521999998,704.2857457999999,704.2857457999999,708.2227562999997,,,,,,,,,1,003,,2024-04-25_12h14.48.012,Motor Imagery,2024.1.1,None,2024-04-25 12h15.10.102337 +0100,
Imagens/right.png,Imagens/up.png,"Vais fechar e abrir o punho direito ou esquerdo, mediante te apareça as setas "Direita" ou "Esquerda". Pressione a barra do ESPAÇO para começar.","Vais fechar e abrir ambos os punhos ou os pés, mediante te apareçam as setas "Para cima" ou "Para baixo", respetivamente. Pressione a barra do ESPAÇO para começar.",0,0,0,0,,,,,,,,,0,0,0,0,12,1,25,0,708.2268909,,,,,,,,,,,,,,,,,,,,708.2230368,708.2268909,708.2268909,712.2102422999997,,,,,712.4530471999997,712.4530471999997,,,,,,,,712.2102642999998,712.4530471999997,712.4530471999997,716.2226701999998,,,,,,,,,1,003,,2024-04-25_12h14.48.012,Motor Imagery,2024.1.1,None,2024-04-25 12h15.10.102337 +0100,
Imagens/right.png,Imagens/up.png,"Vais fechar e abrir o punho direito ou esquerdo, mediante te apareça as setas "Direita" ou "Esquerda". Pressione a barra do ESPAÇO para começar.","Vais fechar e abrir ambos os punhos ou os pés, mediante te apareçam as setas "Para cima" ou "Para baixo", respetivamente. Pressione a barra do ESPAÇO para começar.",0,0,0,0,,,,,,,,,0,0,0,0,13,0,26,0,716.2268134000001,,,,,,,,,,,,,,,,,,,,716.2229484999998,716.2268134000001,716.2268134000001,720.2113721999999,,,,,720.2720973,720.2720973,,,,,,,,720.2113860999998,720.2720973,720.2720973,724.2222816999997,,,,,,,,,1,003,,2024-04-25_12h14.48.012,Motor Imagery,2024.1.1,None,2024-04-25 12h15.10.102337 +0100,
Imagens/left.png,Imagens/down.png,"Vais imaginar o movimento de fechar e abrir o punho direito ou esquerdo, mediante te apareça as setas "Direita" ou "Esquerda". Pressione a barra do ESPAÇO para começar.","Vais imaginar o movimento de fechar e abrir ambos os punhos ou os pés, mediante te apareçam "Para cima" ou "Para baixo", respetivamente.  Pressione a barra do ESPAÇO para começar.",0,0,0,0,,,,,,,,,0,0,0,0,13,1,27,1,724.2270619000001,,,,,,,,,,,,,,,,,,,,724.2225445999998,724.2270619000001,724.2270619000001,728.2108556999997,,,,,728.2738172999998,728.2738172999998,,,,,,,,728.2108699999999,728.2738172999998,728.2738172999998,732.2237316000001,,,,,,,,,1,003,,2024-04-25_12h14.48.012,Motor Imagery,2024.1.1,None,2024-04-25 12h15.10.102337 +0100,
Imagens/left.png,Imagens/down.png,"Vais imaginar o movimento de fechar e abrir o punho direito ou esquerdo, mediante te apareça as setas "Direita" ou "Esquerda". Pressione a barra do ESPAÇO para começar.","Vais imaginar o movimento de fechar e abrir ambos os punhos ou os pés, mediante te apareçam "Para cima" ou "Para baixo", respetivamente.  Pressione a barra do ESPAÇO para começar.",0,0,0,0,,,,,,,,,0,0,0,0,14,0,28,1,732.2272551000001,,,,,,,,,,,,,,,,,,,,732.2240336999998,732.2272551000001,732.2272551000001,736.2124148999997,,,,,736.2773741999999,736.2773741999999,,,,,,,,736.2124292999997,736.2773741999999,736.2773741999999,740.2235932999997,,,,,,,,,1,003,,2024-04-25_12h14.48.012,Motor Imagery,2024.1.1,None,2024-04-25 12h15.10.102337 +0100,
Imagens/right.png,Imagens/up.png,"Vais fechar e abrir o punho direito ou esquerdo, mediante te apareça as setas "Direita" ou "Esquerda". Pressione a barra do ESPAÇO para começar.","Vais fechar e abrir ambos os punhos ou os pés, mediante te apareçam as setas "Para cima" ou "Para baixo", respetivamente. Pressione a barra do ESPAÇO para começar.",0,0,0,0,,,,,,,,,0,0,0,0,14,1,29,0,740.2284678000001,,,,,,,,,,,,,,,,,,,,740.2240756000001,740.2284678000001,740.2284678000001,744.2113859000001,,,,,744.4248199999997,744.4248199999997,,,,,,,,744.2114004,744.4248199999997,744.4248199999997,748.2227413,,,,,,,,,1,003,,2024-04-25_12h14.48.012,Motor Imagery,2024.1.1,None,2024-04-25 12h15.10.102337 +0100,
Imagens/right.png,Imagens/up.png,"Vais fechar e abrir o punho direito ou esquerdo, mediante te apareça as setas "Direita" ou "Esquerda". Pressione a barra do ESPAÇO para começar.","Vais fechar e abrir ambos os punhos ou os pés, mediante te apareçam as setas "Para cima" ou "Para baixo", respetivamente. Pressione a barra do ESPAÇO para começar.",0,0,0,0,,,,,,,,,0,0,0,0,,,,,,,,,,,,,,,,,,,,,,,,,,,,,,,,,,,,,,,,,,,,,,,,,,,,,,1,003,,2024-04-25_12h14.48.012,Motor Imagery,2024.1.1,None,2024-04-25 12h15.10.102337 +0100,
Imagens/right.png,Imagens/up.png,"Vais fechar e abrir o punho direito ou esquerdo, mediante te apareça as setas "Direita" ou "Esquerda". Pressione a barra do ESPAÇO para começar.","Vais fechar e abrir ambos os punhos ou os pés, mediante te apareçam as setas "Para cima" ou "Para baixo", respetivamente. Pressione a barra do ESPAÇO para começar.",0,0,0,0,,,,,,,,,0,1,1,1,0,0,0,0,753.6187418999998,,,,,,,,,,,,,,,,752.6212826999999,752.6246309999997,753.6187418999998,753.6109748999997,753.6160820999999,753.6187418999998,753.6187418999998,757.6020602999997,,,,,757.6640374999997,757.6640374999997,748.2230371,748.2322614999998,748.2322614999998,752.6210308999998,space,752.6146476999998,None,757.6020759999997,757.6640374999997,757.6640374999997,761.6292705999999,,,,,,,,,1,003,,2024-04-25_12h14.48.012,Motor Imagery,2024.1.1,None,2024-04-25 12h15.10.102337 +0100,
Imagens/left.png,Imagens/down.png,"Vais imaginar o movimento de fechar e abrir o punho direito ou esquerdo, mediante te apareça as setas "Direita" ou "Esquerda". Pressione a barra do ESPAÇO para começar.","Vais imaginar o movimento de fechar e abrir ambos os punhos ou os pés, mediante te apareçam "Para cima" ou "Para baixo", respetivamente.  Pressione a barra do ESPAÇO para começar.",0,0,0,0,,,,,,,,,0,1,1,1,0,1,1,1,761.6325333999998,,,,,,,,,,,,,,,,,,,,761.6299801,761.6325333999998,761.6325333999998,765.6182980999997,,,,,765.6745003999999,765.6745003999999,,,,,,,,765.6183117,765.6745003999999,765.6745003999999,769.6228507999999,,,,,,,,,1,003,,2024-04-25_12h14.48.012,Motor Imagery,2024.1.1,None,2024-04-25 12h15.10.102337 +0100,
Imagens/right.png,Imagens/up.png,"Vais fechar e abrir o punho direito ou esquerdo, mediante te apareça as setas "Direita" ou "Esquerda". Pressione a barra do ESPAÇO para começar.","Vais fechar e abrir ambos os punhos ou os pés, mediante te apareçam as setas "Para cima" ou "Para baixo", respetivamente. Pressione a barra do ESPAÇO para começar.",0,0,0,0,,,,,,,,,0,1,1,1,1,0,2,0,769.6315510999998,,,,,,,,,,,,,,,,,,,,769.6231623999997,769.6315510999998,769.6315510999998,773.6201689999998,,,,,773.8903648999999,773.8903648999999,,,,,,,,773.6201857000001,773.8903648999999,773.8903648999999,777.6227951000001,,,,,,,,,1,003,,2024-04-25_12h14.48.012,Motor Imagery,2024.1.1,None,2024-04-25 12h15.10.102337 +0100,
Imagens/left.png,Imagens/down.png,"Vais imaginar o movimento de fechar e abrir o punho direito ou esquerdo, mediante te apareça as setas "Direita" ou "Esquerda". Pressione a barra do ESPAÇO para começar.","Vais imaginar o movimento de fechar e abrir ambos os punhos ou os pés, mediante te apareçam "Para cima" ou "Para baixo", respetivamente.  Pressione a barra do ESPAÇO para começar.",0,0,0,0,,,,,,,,,0,1,1,1,1,1,3,1,777.6267346,,,,,,,,,,,,,,,,,,,,777.6230958000001,777.6267346,777.6267346,781.6107122999997,,,,,781.6746628000001,781.6746628000001,,,,,,,,781.6107269999998,781.6746628000001,781.6746628000001,785.6226647999997,,,,,,,,,1,003,,2024-04-25_12h14.48.012,Motor Imagery,2024.1.1,None,2024-04-25 12h15.10.102337 +0100,
Imagens/right.png,Imagens/up.png,"Vais fechar e abrir o punho direito ou esquerdo, mediante te apareça as setas "Direita" ou "Esquerda". Pressione a barra do ESPAÇO para começar.","Vais fechar e abrir ambos os punhos ou os pés, mediante te apareçam as setas "Para cima" ou "Para baixo", respetivamente. Pressione a barra do ESPAÇO para começar.",0,0,0,0,,,,,,,,,0,1,1,1,2,0,4,0,785.6271836000001,,,,,,,,,,,,,,,,,,,,785.6231561999998,785.6271836000001,785.6271836000001,789.6124541999998,,,,,789.8425672999997,789.8425672999997,,,,,,,,789.6124700999999,789.8425672999997,789.8425672999997,793.6229266999999,,,,,,,,,1,003,,2024-04-25_12h14.48.012,Motor Imagery,2024.1.1,None,2024-04-25 12h15.10.102337 +0100,
Imagens/left.png,Imagens/down.png,"Vais imaginar o movimento de fechar e abrir o punho direito ou esquerdo, mediante te apareça as setas "Direita" ou "Esquerda". Pressione a barra do ESPAÇO para começar.","Vais imaginar o movimento de fechar e abrir ambos os punhos ou os pés, mediante te apareçam "Para cima" ou "Para baixo", respetivamente.  Pressione a barra do ESPAÇO para começar.",0,0,0,0,,,,,,,,,0,1,1,1,2,1,5,1,793.6270823,,,,,,,,,,,,,,,,,,,,793.6232293999997,793.6270823,793.6270823,797.6111302999998,,,,,797.6560362,797.6560362,,,,,,,,797.6111455,797.6560362,797.6560362,801.6229473999997,,,,,,,,,1,003,,2024-04-25_12h14.48.012,Motor Imagery,2024.1.1,None,2024-04-25 12h15.10.102337 +0100,
Imagens/right.png,Imagens/up.png,"Vais fechar e abrir o punho direito ou esquerdo, mediante te apareça as setas "Direita" ou "Esquerda". Pressione a barra do ESPAÇO para começar.","Vais fechar e abrir ambos os punhos ou os pés, mediante te apareçam as setas "Para cima" ou "Para baixo", respetivamente. Pressione a barra do ESPAÇO para começar.",0,0,0,0,,,,,,,,,0,1,1,1,3,0,6,0,801.6272371,,,,,,,,,,,,,,,,,,,,801.6232694,801.6272371,801.6272371,805.611069,,,,,805.8336568999998,805.8336568999998,,,,,,,,805.6110844,805.8336568999998,805.8336568999998,809.6236832999998,,,,,,,,,1,003,,2024-04-25_12h14.48.012,Motor Imagery,2024.1.1,None,2024-04-25 12h15.10.102337 +0100,
Imagens/left.png,Imagens/down.png,"Vais imaginar o movimento de fechar e abrir o punho direito ou esquerdo, mediante te apareça as setas "Direita" ou "Esquerda". Pressione a barra do ESPAÇO para começar.","Vais imaginar o movimento de fechar e abrir ambos os punhos ou os pés, mediante te apareçam "Para cima" ou "Para baixo", respetivamente.  Pressione a barra do ESPAÇO para começar.",0,0,0,0,,,,,,,,,0,1,1,1,3,1,7,1,809.6278586999997,,,,,,,,,,,,,,,,,,,,809.6240232,809.6278586999997,809.6278586999997,813.6114961999997,,,,,813.6721103999998,813.6721103999998,,,,,,,,813.6115116999999,813.6721103999998,813.6721103999998,817.6226741999999,,,,,,,,,1,003,,2024-04-25_12h14.48.012,Motor Imagery,2024.1.1,None,2024-04-25 12h15.10.102337 +0100,
Imagens/right.png,Imagens/up.png,"Vais fechar e abrir o punho direito ou esquerdo, mediante te apareça as setas "Direita" ou "Esquerda". Pressione a barra do ESPAÇO para começar.","Vais fechar e abrir ambos os punhos ou os pés, mediante te apareçam as setas "Para cima" ou "Para baixo", respetivamente. Pressione a barra do ESPAÇO para começar.",0,0,0,0,,,,,,,,,0,1,1,1,4,0,8,0,817.6278781000001,,,,,,,,,,,,,,,,,,,,817.6229659999999,817.6278781000001,817.6278781000001,821.610799,,,,,821.8672056999999,821.8672056999999,,,,,,,,821.610815,821.8672056999999,821.8672056999999,825.6234838999999,,,,,,,,,1,003,,2024-04-25_12h14.48.012,Motor Imagery,2024.1.1,None,2024-04-25 12h15.10.102337 +0100,
Imagens/left.png,Imagens/down.png,"Vais imaginar o movimento de fechar e abrir o punho direito ou esquerdo, mediante te apareça as setas "Direita" ou "Esquerda". Pressione a barra do ESPAÇO para começar.","Vais imaginar o movimento de fechar e abrir ambos os punhos ou os pés, mediante te apareçam "Para cima" ou "Para baixo", respetivamente.  Pressione a barra do ESPAÇO para começar.",0,0,0,0,,,,,,,,,0,1,1,1,4,1,9,1,825.6280185,,,,,,,,,,,,,,,,,,,,825.623814,825.6280185,825.6280185,829.6133943,,,,,829.6533971999997,829.6533971999997,,,,,,,,829.6134069999998,829.6533971999997,829.6533971999997,833.6227912999998,,,,,,,,,1,003,,2024-04-25_12h14.48.012,Motor Imagery,2024.1.1,None,2024-04-25 12h15.10.102337 +0100,
Imagens/left.png,Imagens/down.png,"Vais imaginar o movimento de fechar e abrir o punho direito ou esquerdo, mediante te apareça as setas "Direita" ou "Esquerda". Pressione a barra do ESPAÇO para começar.","Vais imaginar o movimento de fechar e abrir ambos os punhos ou os pés, mediante te apareçam "Para cima" ou "Para baixo", respetivamente.  Pressione a barra do ESPAÇO para começar.",0,0,0,0,,,,,,,,,0,1,1,1,5,0,10,1,833.6294491999997,,,,,,,,,,,,,,,,,,,,833.6231027999997,833.6294491999997,833.6294491999997,837.612658,,,,,837.6592037999999,837.6592037999999,,,,,,,,837.6127031000001,837.6592037999999,837.6592037999999,841.6227899999999,,,,,,,,,1,003,,2024-04-25_12h14.48.012,Motor Imagery,2024.1.1,None,2024-04-25 12h15.10.102337 +0100,
Imagens/right.png,Imagens/up.png,"Vais fechar e abrir o punho direito ou esquerdo, mediante te apareça as setas "Direita" ou "Esquerda". Pressione a barra do ESPAÇO para começar.","Vais fechar e abrir ambos os punhos ou os pés, mediante te apareçam as setas "Para cima" ou "Para baixo", respetivamente. Pressione a barra do ESPAÇO para começar.",0,0,0,0,,,,,,,,,0,1,1,1,5,1,11,0,841.6280603999999,,,,,,,,,,,,,,,,,,,,841.6231395,841.6280603999999,841.6280603999999,845.6154105,,,,,845.8938361,845.8938361,,,,,,,,845.6154238999998,845.8938361,845.8938361,849.6239044999998,,,,,,,,,1,003,,2024-04-25_12h14.48.012,Motor Imagery,2024.1.1,None,2024-04-25 12h15.10.102337 +0100,
Imagens/right.png,Imagens/up.png,"Vais fechar e abrir o punho direito ou esquerdo, mediante te apareça as setas "Direita" ou "Esquerda". Pressione a barra do ESPAÇO para começar.","Vais fechar e abrir ambos os punhos ou os pés, mediante te apareçam as setas "Para cima" ou "Para baixo", respetivamente. Pressione a barra do ESPAÇO para começar.",0,0,0,0,,,,,,,,,0,1,1,1,6,0,12,0,849.6268553,,,,,,,,,,,,,,,,,,,,849.6241999999997,849.6268553,849.6268553,853.6102094999997,,,,,853.6693031999998,853.6693031999998,,,,,,,,853.6102222,853.6693031999998,853.6693031999998,857.6232547999998,,,,,,,,,1,003,,2024-04-25_12h14.48.012,Motor Imagery,2024.1.1,None,2024-04-25 12h15.10.102337 +0100,
Imagens/left.png,Imagens/down.png,"Vais imaginar o movimento de fechar e abrir o punho direito ou esquerdo, mediante te apareça as setas "Direita" ou "Esquerda". Pressione a barra do ESPAÇO para começar.","Vais imaginar o movimento de fechar e abrir ambos os punhos ou os pés, mediante te apareçam "Para cima" ou "Para baixo", respetivamente.  Pressione a barra do ESPAÇO para começar.",0,0,0,0,,,,,,,,,0,1,1,1,6,1,13,1,857.6269391999999,,,,,,,,,,,,,,,,,,,,857.6239292,857.6269391999999,857.6269391999999,861.6112613,,,,,861.6527108,861.6527108,,,,,,,,861.6112761999998,861.6527108,861.6527108,865.6227616000001,,,,,,,,,1,003,,2024-04-25_12h14.48.012,Motor Imagery,2024.1.1,None,2024-04-25 12h15.10.102337 +0100,
Imagens/left.png,Imagens/down.png,"Vais imaginar o movimento de fechar e abrir o punho direito ou esquerdo, mediante te apareça as setas "Direita" ou "Esquerda". Pressione a barra do ESPAÇO para começar.","Vais imaginar o movimento de fechar e abrir ambos os punhos ou os pés, mediante te apareçam "Para cima" ou "Para baixo", respetivamente.  Pressione a barra do ESPAÇO para começar.",0,0,0,0,,,,,,,,,0,1,1,1,7,0,14,1,865.6274949999997,,,,,,,,,,,,,,,,,,,,865.6230692999998,865.6274949999997,865.6274949999997,869.6200150999998,,,,,869.656074,869.656074,,,,,,,,869.6200300999999,869.656074,869.656074,873.6227549999999,,,,,,,,,1,003,,2024-04-25_12h14.48.012,Motor Imagery,2024.1.1,None,2024-04-25 12h15.10.102337 +0100,
Imagens/right.png,Imagens/up.png,"Vais fechar e abrir o punho direito ou esquerdo, mediante te apareça as setas "Direita" ou "Esquerda". Pressione a barra do ESPAÇO para começar.","Vais fechar e abrir ambos os punhos ou os pés, mediante te apareçam as setas "Para cima" ou "Para baixo", respetivamente. Pressione a barra do ESPAÇO para começar.",0,0,0,0,,,,,,,,,0,1,1,1,7,1,15,0,873.6268657,,,,,,,,,,,,,,,,,,,,873.6230350999999,873.6268657,873.6268657,877.6099906,,,,,877.9063944999998,877.9063944999998,,,,,,,,877.6100044999998,877.9063944999998,877.9063944999998,881.6255007999998,,,,,,,,,1,003,,2024-04-25_12h14.48.012,Motor Imagery,2024.1.1,None,2024-04-25 12h15.10.102337 +0100,
Imagens/left.png,Imagens/down.png,"Vais imaginar o movimento de fechar e abrir o punho direito ou esquerdo, mediante te apareça as setas "Direita" ou "Esquerda". Pressione a barra do ESPAÇO para começar.","Vais imaginar o movimento de fechar e abrir ambos os punhos ou os pés, mediante te apareçam "Para cima" ou "Para baixo", respetivamente.  Pressione a barra do ESPAÇO para começar.",0,0,0,0,,,,,,,,,0,1,1,1,8,0,16,1,881.6288959999997,,,,,,,,,,,,,,,,,,,,881.6263648999998,881.6288959999997,881.6288959999997,885.6182451999998,,,,,885.6726506999998,885.6726506999998,,,,,,,,885.6182933,885.6726506999998,885.6726506999998,889.6278508999999,,,,,,,,,1,003,,2024-04-25_12h14.48.012,Motor Imagery,2024.1.1,None,2024-04-25 12h15.10.102337 +0100,
Imagens/right.png,Imagens/up.png,"Vais fechar e abrir o punho direito ou esquerdo, mediante te apareça as setas "Direita" ou "Esquerda". Pressione a barra do ESPAÇO para começar.","Vais fechar e abrir ambos os punhos ou os pés, mediante te apareçam as setas "Para cima" ou "Para baixo", respetivamente. Pressione a barra do ESPAÇO para começar.",0,0,0,0,,,,,,,,,0,1,1,1,8,1,17,0,889.6321604,,,,,,,,,,,,,,,,,,,,889.6284664,889.6321604,889.6321604,893.616509,,,,,893.8860897999998,893.8860897999998,,,,,,,,893.6165458,893.8860897999998,893.8860897999998,897.6229748999999,,,,,,,,,1,003,,2024-04-25_12h14.48.012,Motor Imagery,2024.1.1,None,2024-04-25 12h15.10.102337 +0100,
Imagens/right.png,Imagens/up.png,"Vais fechar e abrir o punho direito ou esquerdo, mediante te apareça as setas "Direita" ou "Esquerda". Pressione a barra do ESPAÇO para começar.","Vais fechar e abrir ambos os punhos ou os pés, mediante te apareçam as setas "Para cima" ou "Para baixo", respetivamente. Pressione a barra do ESPAÇO para começar.",0,0,0,0,,,,,,,,,0,1,1,1,9,0,18,0,897.6289413,,,,,,,,,,,,,,,,,,,,897.6232706000001,897.6289413,897.6289413,901.6186855999999,,,,,901.7467984999998,901.7467984999998,,,,,,,,901.6187019999998,901.7467984999998,901.7467984999998,905.6267327,,,,,,,,,1,003,,2024-04-25_12h14.48.012,Motor Imagery,2024.1.1,None,2024-04-25 12h15.10.102337 +0100,
Imagens/left.png,Imagens/down.png,"Vais imaginar o movimento de fechar e abrir o punho direito ou esquerdo, mediante te apareça as setas "Direita" ou "Esquerda". Pressione a barra do ESPAÇO para começar.","Vais imaginar o movimento de fechar e abrir ambos os punhos ou os pés, mediante te apareçam "Para cima" ou "Para baixo", respetivamente.  Pressione a barra do ESPAÇO para começar.",0,0,0,0,,,,,,,,,0,1,1,1,9,1,19,1,905.6320443,,,,,,,,,,,,,,,,,,,,905.6276814999997,905.6320443,905.6320443,909.6185928,,,,,909.6893495999998,909.6893495999998,,,,,,,,909.6186078999999,909.6893495999998,909.6893495999998,913.6279255,,,,,,,,,1,003,,2024-04-25_12h14.48.012,Motor Imagery,2024.1.1,None,2024-04-25 12h15.10.102337 +0100,
Imagens/left.png,Imagens/down.png,"Vais imaginar o movimento de fechar e abrir o punho direito ou esquerdo, mediante te apareça as setas "Direita" ou "Esquerda". Pressione a barra do ESPAÇO para começar.","Vais imaginar o movimento de fechar e abrir ambos os punhos ou os pés, mediante te apareçam "Para cima" ou "Para baixo", respetivamente.  Pressione a barra do ESPAÇO para começar.",0,0,0,0,,,,,,,,,0,1,1,1,10,0,20,1,913.6317074999997,,,,,,,,,,,,,,,,,,,,913.6288123999998,913.6317074999997,913.6317074999997,917.6187761000001,,,,,917.6575244999999,917.6575244999999,,,,,,,,917.6187915999999,917.6575244999999,917.6575244999999,921.6230750999998,,,,,,,,,1,003,,2024-04-25_12h14.48.012,Motor Imagery,2024.1.1,None,2024-04-25 12h15.10.102337 +0100,
Imagens/right.png,Imagens/up.png,"Vais fechar e abrir o punho direito ou esquerdo, mediante te apareça as setas "Direita" ou "Esquerda". Pressione a barra do ESPAÇO para começar.","Vais fechar e abrir ambos os punhos ou os pés, mediante te apareçam as setas "Para cima" ou "Para baixo", respetivamente. Pressione a barra do ESPAÇO para começar.",0,0,0,0,,,,,,,,,0,1,1,1,10,1,21,0,921.6269557999999,,,,,,,,,,,,,,,,,,,,921.623376,921.6269557999999,921.6269557999999,925.6108528999998,,,,,925.8475364000001,925.8475364000001,,,,,,,,925.6108664999997,925.8475364000001,925.8475364000001,929.6234964,,,,,,,,,1,003,,2024-04-25_12h14.48.012,Motor Imagery,2024.1.1,None,2024-04-25 12h15.10.102337 +0100,
Imagens/left.png,Imagens/down.png,"Vais imaginar o movimento de fechar e abrir o punho direito ou esquerdo, mediante te apareça as setas "Direita" ou "Esquerda". Pressione a barra do ESPAÇO para começar.","Vais imaginar o movimento de fechar e abrir ambos os punhos ou os pés, mediante te apareçam "Para cima" ou "Para baixo", respetivamente.  Pressione a barra do ESPAÇO para começar.",0,0,0,0,,,,,,,,,0,1,1,1,11,0,22,1,929.6277455999998,,,,,,,,,,,,,,,,,,,,929.6242090000001,929.6277455999998,929.6277455999998,933.6127096999999,,,,,933.6644378000001,933.6644378000001,,,,,,,,933.6127237000001,933.6644378000001,933.6644378000001,937.6227743,,,,,,,,,1,003,,2024-04-25_12h14.48.012,Motor Imagery,2024.1.1,None,2024-04-25 12h15.10.102337 +0100,
Imagens/right.png,Imagens/up.png,"Vais fechar e abrir o punho direito ou esquerdo, mediante te apareça as setas "Direita" ou "Esquerda". Pressione a barra do ESPAÇO para começar.","Vais fechar e abrir ambos os punhos ou os pés, mediante te apareçam as setas "Para cima" ou "Para baixo", respetivamente. Pressione a barra do ESPAÇO para começar.",0,0,0,0,,,,,,,,,0,1,1,1,11,1,23,0,937.6320338999999,,,,,,,,,,,,,,,,,,,,937.6230520999998,937.6320338999999,937.6320338999999,941.6157899,,,,,941.9940538000001,941.9940538000001,,,,,,,,941.6158056999998,941.9940538000001,941.9940538000001,945.6231131,,,,,,,,,1,003,,2024-04-25_12h14.48.012,Motor Imagery,2024.1.1,None,2024-04-25 12h15.10.102337 +0100,
Imagens/right.png,Imagens/up.png,"Vais fechar e abrir o punho direito ou esquerdo, mediante te apareça as setas "Direita" ou "Esquerda". Pressione a barra do ESPAÇO para começar.","Vais fechar e abrir ambos os punhos ou os pés, mediante te apareçam as setas "Para cima" ou "Para baixo", respetivamente. Pressione a barra do ESPAÇO para começar.",0,0,0,0,,,,,,,,,0,1,1,1,12,0,24,0,945.6267266999998,,,,,,,,,,,,,,,,,,,,945.6234047999997,945.6267266999998,945.6267266999998,949.6105496999999,,,,,949.6682341999999,949.6682341999999,,,,,,,,949.6105858999999,949.6682341999999,949.6682341999999,953.6281647000001,,,,,,,,,1,003,,2024-04-25_12h14.48.012,Motor Imagery,2024.1.1,None,2024-04-25 12h15.10.102337 +0100,
Imagens/left.png,Imagens/down.png,"Vais imaginar o movimento de fechar e abrir o punho direito ou esquerdo, mediante te apareça as setas "Direita" ou "Esquerda". Pressione a barra do ESPAÇO para começar.","Vais imaginar o movimento de fechar e abrir ambos os punhos ou os pés, mediante te apareçam "Para cima" ou "Para baixo", respetivamente.  Pressione a barra do ESPAÇO para começar.",0,0,0,0,,,,,,,,,0,1,1,1,12,1,25,1,953.6316721999997,,,,,,,,,,,,,,,,,,,,953.6290346000001,953.6316721999997,953.6316721999997,957.6158553999999,,,,,957.6742122,957.6742122,,,,,,,,957.6158719999999,957.6742122,957.6742122,961.6226895,,,,,,,,,1,003,,2024-04-25_12h14.48.012,Motor Imagery,2024.1.1,None,2024-04-25 12h15.10.102337 +0100,
Imagens/right.png,Imagens/up.png,"Vais fechar e abrir o punho direito ou esquerdo, mediante te apareça as setas "Direita" ou "Esquerda". Pressione a barra do ESPAÇO para começar.","Vais fechar e abrir ambos os punhos ou os pés, mediante te apareçam as setas "Para cima" ou "Para baixo", respetivamente. Pressione a barra do ESPAÇO para começar.",0,0,0,0,,,,,,,,,0,1,1,1,13,0,26,0,961.6268075999997,,,,,,,,,,,,,,,,,,,,961.6229960999999,961.6268075999997,961.6268075999997,965.610772,,,,,965.8565816999999,965.8565816999999,,,,,,,,965.6107858999999,965.8565816999999,965.8565816999999,969.6227218999998,,,,,,,,,1,003,,2024-04-25_12h14.48.012,Motor Imagery,2024.1.1,None,2024-04-25 12h15.10.102337 +0100,
Imagens/left.png,Imagens/down.png,"Vais imaginar o movimento de fechar e abrir o punho direito ou esquerdo, mediante te apareça as setas "Direita" ou "Esquerda". Pressione a barra do ESPAÇO para começar.","Vais imaginar o movimento de fechar e abrir ambos os punhos ou os pés, mediante te apareçam "Para cima" ou "Para baixo", respetivamente.  Pressione a barra do ESPAÇO para começar.",0,0,0,0,,,,,,,,,0,1,1,1,13,1,27,1,969.6271692999999,,,,,,,,,,,,,,,,,,,,969.6229896,969.6271692999999,969.6271692999999,973.6107475999997,,,,,973.6646425999998,973.6646425999998,,,,,,,,973.6107665999998,973.6646425999998,973.6646425999998,977.6236202999999,,,,,,,,,1,003,,2024-04-25_12h14.48.012,Motor Imagery,2024.1.1,None,2024-04-25 12h15.10.102337 +0100,
Imagens/right.png,Imagens/up.png,"Vais fechar e abrir o punho direito ou esquerdo, mediante te apareça as setas "Direita" ou "Esquerda". Pressione a barra do ESPAÇO para começar.","Vais fechar e abrir ambos os punhos ou os pés, mediante te apareçam as setas "Para cima" ou "Para baixo", respetivamente. Pressione a barra do ESPAÇO para começar.",0,0,0,0,,,,,,,,,0,1,1,1,14,0,28,0,977.6329186999997,,,,,,,,,,,,,,,,,,,,977.6240496,977.6329186999997,977.6329186999997,981.6193073999998,,,,,981.8632849,981.8632849,,,,,,,,981.6193208999998,981.8632849,981.8632849,985.6229754000001,,,,,,,,,1,003,,2024-04-25_12h14.48.012,Motor Imagery,2024.1.1,None,2024-04-25 12h15.10.102337 +0100,
Imagens/left.png,Imagens/down.png,"Vais imaginar o movimento de fechar e abrir o punho direito ou esquerdo, mediante te apareça as setas "Direita" ou "Esquerda". Pressione a barra do ESPAÇO para começar.","Vais imaginar o movimento de fechar e abrir ambos os punhos ou os pés, mediante te apareçam "Para cima" ou "Para baixo", respetivamente.  Pressione a barra do ESPAÇO para começar.",0,0,0,0,,,,,,,,,0,1,1,1,14,1,29,1,985.6289707999999,,,,,,,,,,,,,,,,,,,,985.6234451999999,985.6289707999999,985.6289707999999,989.6197717999999,,,,,989.6870595,989.6870595,,,,,,,,989.6198142999997,989.6870595,989.6870595,993.6229232000001,,,,,,,,,1,003,,2024-04-25_12h14.48.012,Motor Imagery,2024.1.1,None,2024-04-25 12h15.10.102337 +0100,
Imagens/left.png,Imagens/down.png,"Vais imaginar o movimento de fechar e abrir o punho direito ou esquerdo, mediante te apareça as setas "Direita" ou "Esquerda". Pressione a barra do ESPAÇO para começar.","Vais imaginar o movimento de fechar e abrir ambos os punhos ou os pés, mediante te apareçam "Para cima" ou "Para baixo", respetivamente.  Pressione a barra do ESPAÇO para começar.",0,0,0,0,,,,,,,,,0,1,1,1,,,,,,,,,,,,,,,,,,,,,,,,,,,,,,,,,,,,,,,,,,,,,,,,,,,,,,1,003,,2024-04-25_12h14.48.012,Motor Imagery,2024.1.1,None,2024-04-25 12h15.10.102337 +0100,
,,,,0,0,0,0,,,,,,,,,,,,,,,,,,,,,,,,,,,,,,,,,,,,,,,,,,,,,,,,,,,,,,,,,,,,,,,,,,1,003,,2024-04-25_12h14.48.012,Motor Imagery,2024.1.1,None,2024-04-25 12h15.10.102337 +0100,
Imagens/right.png,Imagens/up.png,"Vais fechar e abrir o punho direito ou esquerdo, mediante te apareça as setas "Direita" ou "Esquerda". Pressione a barra do ESPAÇO para começar.","Vais fechar e abrir ambos os punhos ou os pés, mediante te apareçam as setas "Para cima" ou "Para baixo", respetivamente. Pressione a barra do ESPAÇO para começar.",1,0,1,0,0,0,0,0,0,0,0,0,,,,,,,,,1022.5834720999997,,,,,,,,,993.6273874999997,993.6352285999997,993.6352285999997,1021.5863027999999,space,1021.5840436999997,None,1021.5866676,1021.5906390999999,1022.5834720999997,1022.5742697999999,1022.5801637999998,1022.5834720999997,1022.5834720999997,1026.5746879999997,1026.5747045999997,1026.5906990999997,1026.5906990999997,1030.5775298999997,1026.5906990999997,1026.5906990999997,,,,,,,,,,,,1030.5820931999997,1030.5820931999997,,,,,,,1,003,,2024-04-25_12h14.48.012,Motor Imagery,2024.1.1,None,2024-04-25 12h15.10.102337 +0100,
Imagens/left.png,Imagens/down.png,"Vais imaginar o movimento de fechar e abrir o punho direito ou esquerdo, mediante te apareça as setas "Direita" ou "Esquerda". Pressione a barra do ESPAÇO para começar.","Vais imaginar o movimento de fechar e abrir ambos os punhos ou os pés, mediante te apareçam "Para cima" ou "Para baixo", respetivamente.  Pressione a barra do ESPAÇO para começar.",1,0,1,0,0,0,0,0,0,1,1,1,,,,,,,,,1030.5820931999997,,,,,,,,,,,,,,,,,,,,1030.5783757,1030.5820931999997,1030.5820931999997,1034.5676921,1034.5677447999997,1034.8278338,1034.8278338,1038.5904625999997,1034.8278338,1034.8278338,,,,,,,,,,,,,,,,,,,,1,003,,2024-04-25_12h14.48.012,Motor Imagery,2024.1.1,None,2024-04-25 12h15.10.102337 +0100,
Imagens/right.png,Imagens/up.png,"Vais fechar e abrir o punho direito ou esquerdo, mediante te apareça as setas "Direita" ou "Esquerda". Pressione a barra do ESPAÇO para começar.","Vais fechar e abrir ambos os punhos ou os pés, mediante te apareçam as setas "Para cima" ou "Para baixo", respetivamente. Pressione a barra do ESPAÇO para começar.",1,0,1,0,0,0,0,0,1,0,2,0,,,,,,,,,1038.5944083999998,,,,,,,,,,,,,,,,,,,,1038.5909250999998,1038.5944083999998,1038.5944083999998,1042.5811488999998,1042.5811629999998,1042.6175307999997,1042.6175307999997,1046.593233,1042.6175307999997,1042.6175307999997,,,,,,,,,,,,,,,,,,,,1,003,,2024-04-25_12h14.48.012,Motor Imagery,2024.1.1,None,2024-04-25 12h15.10.102337 +0100,
Imagens/left.png,Imagens/down.png,"Vais imaginar o movimento de fechar e abrir o punho direito ou esquerdo, mediante te apareça as setas "Direita" ou "Esquerda". Pressione a barra do ESPAÇO para começar.","Vais imaginar o movimento de fechar e abrir ambos os punhos ou os pés, mediante te apareçam "Para cima" ou "Para baixo", respetivamente.  Pressione a barra do ESPAÇO para começar.",1,0,1,0,0,0,0,0,1,1,3,1,,,,,,,,,1046.5990308,,,,,,,,,,,,,,,,,,,,1046.5938424,1046.5990308,1046.5990308,1050.5857185999998,1050.5857324999997,1050.8780328999997,1050.8780328999997,1054.5904243999998,1050.8780328999997,1050.8780328999997,,,,,,,,,,,,,,,,,,,,1,003,,2024-04-25_12h14.48.012,Motor Imagery,2024.1.1,None,2024-04-25 12h15.10.102337 +0100,
Imagens/left.png,Imagens/down.png,"Vais imaginar o movimento de fechar e abrir o punho direito ou esquerdo, mediante te apareça as setas "Direita" ou "Esquerda". Pressione a barra do ESPAÇO para começar.","Vais imaginar o movimento de fechar e abrir ambos os punhos ou os pés, mediante te apareçam "Para cima" ou "Para baixo", respetivamente.  Pressione a barra do ESPAÇO para começar.",1,0,1,0,0,0,0,0,2,0,4,1,,,,,,,,,1054.5930303,,,,,,,,,,,,,,,,,,,,1054.5907236999997,1054.5930303,1054.5930303,1058.5775301999997,1058.5775755999998,1058.6754029999997,1058.6754029999997,1062.5902874999997,1058.6754029999997,1058.6754029999997,,,,,,,,,,,,,,,,,,,,1,003,,2024-04-25_12h14.48.012,Motor Imagery,2024.1.1,None,2024-04-25 12h15.10.102337 +0100,
Imagens/right.png,Imagens/up.png,"Vais fechar e abrir o punho direito ou esquerdo, mediante te apareça as setas "Direita" ou "Esquerda". Pressione a barra do ESPAÇO para começar.","Vais fechar e abrir ambos os punhos ou os pés, mediante te apareçam as setas "Para cima" ou "Para baixo", respetivamente. Pressione a barra do ESPAÇO para começar.",1,0,1,0,0,0,0,0,2,1,5,0,,,,,,,,,1062.5983661,,,,,,,,,,,,,,,,,,,,1062.5906949999999,1062.5983661,1062.5983661,1066.5817189999998,1066.5817328999997,1066.6471668999998,1066.6471668999998,1070.5895904999998,1066.6471668999998,1066.6471668999998,,,,,,,,,,,,,,,,,,,,1,003,,2024-04-25_12h14.48.012,Motor Imagery,2024.1.1,None,2024-04-25 12h15.10.102337 +0100,
Imagens/left.png,Imagens/down.png,"Vais imaginar o movimento de fechar e abrir o punho direito ou esquerdo, mediante te apareça as setas "Direita" ou "Esquerda". Pressione a barra do ESPAÇO para começar.","Vais imaginar o movimento de fechar e abrir ambos os punhos ou os pés, mediante te apareçam "Para cima" ou "Para baixo", respetivamente.  Pressione a barra do ESPAÇO para começar.",1,0,1,0,0,0,0,0,3,0,6,1,,,,,,,,,1070.5935808999998,,,,,,,,,,,,,,,,,,,,1070.5898806,1070.5935808999998,1070.5935808999998,1074.5773983999998,1074.5774148,1074.9158991,1074.9158991,1078.5899956999997,1074.9158991,1074.9158991,,,,,,,,,,,,,,,,,,,,1,003,,2024-04-25_12h14.48.012,Motor Imagery,2024.1.1,None,2024-04-25 12h15.10.102337 +0100,
Imagens/right.png,Imagens/up.png,"Vais fechar e abrir o punho direito ou esquerdo, mediante te apareça as setas "Direita" ou "Esquerda". Pressione a barra do ESPAÇO para começar.","Vais fechar e abrir ambos os punhos ou os pés, mediante te apareçam as setas "Para cima" ou "Para baixo", respetivamente. Pressione a barra do ESPAÇO para começar.",1,0,1,0,0,0,0,0,3,1,7,0,,,,,,,,,1078.5962903999998,,,,,,,,,,,,,,,,,,,,1078.5904262,1078.5962903999998,1078.5962903999998,1082.580633,1082.5806456999999,1082.6419701,1082.6419701,1086.5867448999998,1082.6419701,1082.6419701,,,,,,,,,,,,,,,,,,,,1,003,,2024-04-25_12h14.48.012,Motor Imagery,2024.1.1,None,2024-04-25 12h15.10.102337 +0100,
Imagens/right.png,Imagens/up.png,"Vais fechar e abrir o punho direito ou esquerdo, mediante te apareça as setas "Direita" ou "Esquerda". Pressione a barra do ESPAÇO para começar.","Vais fechar e abrir ambos os punhos ou os pés, mediante te apareçam as setas "Para cima" ou "Para baixo", respetivamente. Pressione a barra do ESPAÇO para começar.",1,0,1,0,0,0,0,0,4,0,8,0,,,,,,,,,1086.5905567,,,,,,,,,,,,,,,,,,,,1086.5870590999998,1086.5905567,1086.5905567,1090.5752270999997,1090.5752405999997,1090.5945901999999,1090.5945901999999,1094.5815807,1090.5945901999999,1090.5945901999999,,,,,,,,,,,,1094.5855523999999,1094.5855523999999,,,,,,,1,003,,2024-04-25_12h14.48.012,Motor Imagery,2024.1.1,None,2024-04-25 12h15.10.102337 +0100,
Imagens/left.png,Imagens/down.png,"Vais imaginar o movimento de fechar e abrir o punho direito ou esquerdo, mediante te apareça as setas "Direita" ou "Esquerda". Pressione a barra do ESPAÇO para começar.","Vais imaginar o movimento de fechar e abrir ambos os punhos ou os pés, mediante te apareçam "Para cima" ou "Para baixo", respetivamente.  Pressione a barra do ESPAÇO para começar.",1,0,1,0,0,0,0,0,4,1,9,1,,,,,,,,,1094.5855523999999,,,,,,,,,,,,,,,,,,,,1094.5818304999998,1094.5855523999999,1094.5855523999999,1098.5684916999999,1098.5685054,1098.8129028999997,1098.8129028999997,1102.5899953999997,1098.8129028999997,1098.8129028999997,,,,,,,,,,,,,,,,,,,,1,003,,2024-04-25_12h14.48.012,Motor Imagery,2024.1.1,None,2024-04-25 12h15.10.102337 +0100,
Imagens/left.png,Imagens/down.png,"Vais imaginar o movimento de fechar e abrir o punho direito ou esquerdo, mediante te apareça as setas "Direita" ou "Esquerda". Pressione a barra do ESPAÇO para começar.","Vais imaginar o movimento de fechar e abrir ambos os punhos ou os pés, mediante te apareçam "Para cima" ou "Para baixo", respetivamente.  Pressione a barra do ESPAÇO para começar.",1,0,1,0,0,0,0,0,5,0,10,1,,,,,,,,,1102.5945588,,,,,,,,,,,,,,,,,,,,1102.5907809999999,1102.5945588,1102.5945588,1106.5783797999998,1106.5783935999998,1106.676246,1106.676246,1110.5894635999998,1106.676246,1106.676246,,,,,,,,,,,,,,,,,,,,1,003,,2024-04-25_12h14.48.012,Motor Imagery,2024.1.1,None,2024-04-25 12h15.10.102337 +0100,
Imagens/right.png,Imagens/up.png,"Vais fechar e abrir o punho direito ou esquerdo, mediante te apareça as setas "Direita" ou "Esquerda". Pressione a barra do ESPAÇO para começar.","Vais fechar e abrir ambos os punhos ou os pés, mediante te apareçam as setas "Para cima" ou "Para baixo", respetivamente. Pressione a barra do ESPAÇO para começar.",1,0,1,0,0,0,0,0,5,1,11,0,,,,,,,,,1110.5934061999997,,,,,,,,,,,,,,,,,,,,1110.5897563999997,1110.5934061999997,1110.5934061999997,1114.5770782,1114.5770997,1114.6307799,1114.6307799,1118.5871048999998,1114.6307799,1114.6307799,,,,,,,,,,,,,,,,,,,,1,003,,2024-04-25_12h14.48.012,Motor Imagery,2024.1.1,None,2024-04-25 12h15.10.102337 +0100,
