individual_punho,ambos_punhos_pes,instructions1,instructions2,trials.thisRepN,trials.thisTrialN,trials.thisN,trials.thisIndex,trials_3.thisRepN,trials_3.thisTrialN,trials_3.thisN,trials_3.thisIndex,imageryTrials.thisRepN,imageryTrials.thisTrialN,imageryTrials.thisN,imageryTrials.thisIndex,trials_4.thisRepN,trials_4.thisTrialN,trials_4.thisN,trials_4.thisIndex,imageryTrials2.thisRepN,imageryTrials2.thisTrialN,imageryTrials2.thisN,imageryTrials2.thisIndex,thisRow.t,notes,WelcomeScreen.started,textWelcomeMessage.started,WelcomeScreen.stopped,blank200.started,textBlank200.started,blank200.stopped,StartScreen.started,textOrientationMessage.started,keyWelcome.started,StartScreen.stopped,keyWelcome.keys,keyWelcome.rt,keyWelcome.duration,start.started,polygon_start.started,polygon_start.stopped,start.stopped,rest.started,textrest.started,polygon_rest.started,rest.stopped,task.started,polygonDE.started,image.started,task.stopped,textrest.stopped,polygon_rest.stopped,Start2Screen.started,textOrientationMessage2.started,keyOrientation2Message.started,Start2Screen.stopped,keyOrientation2Message.keys,keyOrientation2Message.rt,keyOrientation2Message.duration,task2.started,polygonPP.started,image_2.started,task2.stopped,GoodByeScreen.started,textGoodBuyMessage.started,GoodByeScreen.stopped,participant,session,name,date,expName,psychopyVersion,frameRate,expStart,
,,,,,,,,,,,,,,,,,,,,,,,,,,0.003635900000062975,0.01314090000005308,2.0025783999999476,,,,,,,,,,,,,,,,,,,,,,,,,,,,,,,,,,,,,,,666,001,,2024-04-23_14h20.07.574,Motor Imagery,2024.1.1,None,2024-04-23 14h20.24.052085 +0100,
,,,,,,,,,,,,,,,,,,,,,,,,,,,,,2.0026526999999987,2.0195746999997937,2.2025948999998946,,,,,,,,,,,,,,,,,,,,,,,,,,,,,,,,,,,,666,001,,2024-04-23_14h20.07.574,Motor Imagery,2024.1.1,None,2024-04-23 14h20.24.052085 +0100,
Imagens/left.png,Imagens/down.png,"Vais imaginar o movimento de fechar e abrir o punho direito ou esquerdo, mediante te apareça as setas "Direita" ou "Esquerda". Pressione a barra do ESPAÇO para começar.","Vais imaginar o movimento de fechar e abrir ambos os punhos ou os pés, mediante te apareçam "Para cima" ou "Para baixo", respetivamente.  Pressione a barra do ESPAÇO para começar.",0,0,0,0,0,0,0,0,0,0,0,1,,,,,,,,,12.386886700000105,,,,,,,,2.3334254999999757,2.385693799999899,2.385693799999899,11.305568299999777,space,11.133830499999931,None,11.307226699999774,11.312410900000032,12.386886700000105,12.302729199999703,12.372648799999752,12.386886700000105,12.386886700000105,16.317590399999972,16.317649699999947,16.736219899999924,16.736219899999924,20.31733159999976,,,,,,,,,,,,,,,,,666,001,,2024-04-23_14h20.07.574,Motor Imagery,2024.1.1,None,2024-04-23 14h20.24.052085 +0100,
Imagens/right.png,Imagens/up.png,"Vais fechar e abrir o punho direito ou esquerdo, mediante te apareça as setas "Direita" ou "Esquerda". Pressione a barra do ESPAÇO para começar.","Vais fechar e abrir ambos os punhos ou os pés, mediante te apareçam as setas "Para cima" ou "Para baixo", respetivamente. Pressione a barra do ESPAÇO para começar.",0,0,0,0,0,0,0,0,0,1,1,0,,,,,,,,,20.332652199999757,,,,,,,,,,,,,,,,,,,20.317918299999747,20.332652199999757,20.332652199999757,24.31651389999979,24.316569099999924,24.526467599999705,24.526467599999705,28.31598669999994,,,,,,,,,,,,,,,,,666,001,,2024-04-23_14h20.07.574,Motor Imagery,2024.1.1,None,2024-04-23 14h20.24.052085 +0100,
Imagens/right.png,Imagens/up.png,"Vais fechar e abrir o punho direito ou esquerdo, mediante te apareça as setas "Direita" ou "Esquerda". Pressione a barra do ESPAÇO para começar.","Vais fechar e abrir ambos os punhos ou os pés, mediante te apareçam as setas "Para cima" ou "Para baixo", respetivamente. Pressione a barra do ESPAÇO para começar.",0,0,0,0,0,0,0,0,1,0,2,0,,,,,,,,,28.33199280000008,,,,,,,,,,,,,,,,,,,28.31650549999995,28.33199280000008,28.33199280000008,32.31538120000005,32.31543359999978,32.3763227999998,32.3763227999998,36.31576589999986,,,,,,,,,,,,,,,,,666,001,,2024-04-23_14h20.07.574,Motor Imagery,2024.1.1,None,2024-04-23 14h20.24.052085 +0100,
Imagens/left.png,Imagens/down.png,"Vais imaginar o movimento de fechar e abrir o punho direito ou esquerdo, mediante te apareça as setas "Direita" ou "Esquerda". Pressione a barra do ESPAÇO para começar.","Vais imaginar o movimento de fechar e abrir ambos os punhos ou os pés, mediante te apareçam "Para cima" ou "Para baixo", respetivamente.  Pressione a barra do ESPAÇO para começar.",0,0,0,0,0,0,0,0,1,1,3,1,,,,,,,,,36.33137089999991,,,,,,,,,,,,,,,,,,,36.31716289999986,36.33137089999991,36.33137089999991,40.31451680000009,40.31456879999996,40.53056359999982,40.53056359999982,44.314827499999865,,,,,,,,,,,,,,,,,666,001,,2024-04-23_14h20.07.574,Motor Imagery,2024.1.1,None,2024-04-23 14h20.24.052085 +0100,
Imagens/right.png,Imagens/up.png,"Vais fechar e abrir o punho direito ou esquerdo, mediante te apareça as setas "Direita" ou "Esquerda". Pressione a barra do ESPAÇO para começar.","Vais fechar e abrir ambos os punhos ou os pés, mediante te apareçam as setas "Para cima" ou "Para baixo", respetivamente. Pressione a barra do ESPAÇO para começar.",0,0,0,0,0,0,0,0,2,0,4,0,,,,,,,,,44.33030890000009,,,,,,,,,,,,,,,,,,,44.31598050000002,44.33030890000009,44.33030890000009,48.313405299999886,48.31345979999969,48.36703219999981,48.36703219999981,52.31336449999981,,,,,,,,,,,,,,,,,666,001,,2024-04-23_14h20.07.574,Motor Imagery,2024.1.1,None,2024-04-23 14h20.24.052085 +0100,
Imagens/left.png,Imagens/down.png,"Vais imaginar o movimento de fechar e abrir o punho direito ou esquerdo, mediante te apareça as setas "Direita" ou "Esquerda". Pressione a barra do ESPAÇO para começar.","Vais imaginar o movimento de fechar e abrir ambos os punhos ou os pés, mediante te apareçam "Para cima" ou "Para baixo", respetivamente.  Pressione a barra do ESPAÇO para começar.",0,0,0,0,0,0,0,0,2,1,5,1,,,,,,,,,52.32915899999989,,,,,,,,,,,,,,,,,,,52.31449769999972,52.32915899999989,52.32915899999989,56.31239319999986,56.31244829999969,56.49398859999974,56.49398859999974,60.3128643,,,,,,,,,,,,,,,,,666,001,,2024-04-23_14h20.07.574,Motor Imagery,2024.1.1,None,2024-04-23 14h20.24.052085 +0100,
Imagens/right.png,Imagens/up.png,"Vais fechar e abrir o punho direito ou esquerdo, mediante te apareça as setas "Direita" ou "Esquerda". Pressione a barra do ESPAÇO para começar.","Vais fechar e abrir ambos os punhos ou os pés, mediante te apareçam as setas "Para cima" ou "Para baixo", respetivamente. Pressione a barra do ESPAÇO para começar.",0,0,0,0,0,0,0,0,3,0,6,0,,,,,,,,,60.32797559999972,,,,,,,,,,,,,,,,,,,60.31392619999997,60.32797559999972,60.32797559999972,64.3111613000001,64.31120869999995,64.37148739999975,64.37148739999975,68.31122619999996,,,,,,,,,,,,,,,,,666,001,,2024-04-23_14h20.07.574,Motor Imagery,2024.1.1,None,2024-04-23 14h20.24.052085 +0100,
Imagens/left.png,Imagens/down.png,"Vais imaginar o movimento de fechar e abrir o punho direito ou esquerdo, mediante te apareça as setas "Direita" ou "Esquerda". Pressione a barra do ESPAÇO para começar.","Vais imaginar o movimento de fechar e abrir ambos os punhos ou os pés, mediante te apareçam "Para cima" ou "Para baixo", respetivamente.  Pressione a barra do ESPAÇO para começar.",0,0,0,0,0,0,0,0,3,1,7,1,,,,,,,,,68.32696429999987,,,,,,,,,,,,,,,,,,,68.31229780000012,68.32696429999987,68.32696429999987,72.31024829999978,72.31029360000002,72.4935645999999,72.4935645999999,76.31110390000003,,,,,,,,,,,,,,,,,666,001,,2024-04-23_14h20.07.574,Motor Imagery,2024.1.1,None,2024-04-23 14h20.24.052085 +0100,
Imagens/right.png,Imagens/up.png,"Vais fechar e abrir o punho direito ou esquerdo, mediante te apareça as setas "Direita" ou "Esquerda". Pressione a barra do ESPAÇO para começar.","Vais fechar e abrir ambos os punhos ou os pés, mediante te apareçam as setas "Para cima" ou "Para baixo", respetivamente. Pressione a barra do ESPAÇO para começar.",0,0,0,0,0,0,0,0,,,,,,,,,,,,,,,,,,,,,,,,,,,,,,,,,,,,,,,,,,,,,,,,,,,,,,,,666,001,,2024-04-23_14h20.07.574,Motor Imagery,2024.1.1,None,2024-04-23 14h20.24.052085 +0100,
Imagens/left.png,Imagens/down.png,"Vais imaginar o movimento de fechar e abrir o punho direito ou esquerdo, mediante te apareça as setas "Direita" ou "Esquerda". Pressione a barra do ESPAÇO para começar.","Vais imaginar o movimento de fechar e abrir ambos os punhos ou os pés, mediante te apareçam "Para cima" ou "Para baixo", respetivamente.  Pressione a barra do ESPAÇO para começar.",0,0,0,0,0,1,1,1,0,0,0,1,,,,,,,,,82.7589751999999,,,,,,,,76.31243540000014,76.36633290000009,76.36633290000009,81.74507199999971,space,81.72722629999998,None,81.74638079999977,81.75848420000011,82.7589751999999,82.74239880000005,82.75255900000002,82.7589751999999,82.7589751999999,86.74357430000009,86.74364239999977,86.95461419999992,86.95461419999992,90.75913869999977,86.95461419999992,86.95461419999992,,,,,,,,,,,,,,,666,001,,2024-04-23_14h20.07.574,Motor Imagery,2024.1.1,None,2024-04-23 14h20.24.052085 +0100,
Imagens/right.png,Imagens/up.png,"Vais fechar e abrir o punho direito ou esquerdo, mediante te apareça as setas "Direita" ou "Esquerda". Pressione a barra do ESPAÇO para começar.","Vais fechar e abrir ambos os punhos ou os pés, mediante te apareçam as setas "Para cima" ou "Para baixo", respetivamente. Pressione a barra do ESPAÇO para começar.",0,0,0,0,0,1,1,1,0,1,1,0,,,,,,,,,90.7743504,,,,,,,,,,,,,,,,,,,90.76029779999999,90.7743504,90.7743504,94.7574126999998,94.75746630000003,94.81043180000006,94.81043180000006,98.75753529999974,,,,,,,,,,,,,,,,,666,001,,2024-04-23_14h20.07.574,Motor Imagery,2024.1.1,None,2024-04-23 14h20.24.052085 +0100,
Imagens/right.png,Imagens/up.png,"Vais fechar e abrir o punho direito ou esquerdo, mediante te apareça as setas "Direita" ou "Esquerda". Pressione a barra do ESPAÇO para começar.","Vais fechar e abrir ambos os punhos ou os pés, mediante te apareçam as setas "Para cima" ou "Para baixo", respetivamente. Pressione a barra do ESPAÇO para começar.",0,0,0,0,0,1,1,1,1,0,2,0,,,,,,,,,98.7734317999998,,,,,,,,,,,,,,,,,,,98.75867149999976,98.7734317999998,98.7734317999998,102.75648539999975,102.7565381999998,102.8116116000001,102.8116116000001,106.7562555999998,,,,,,,,,,,,,,,,,666,001,,2024-04-23_14h20.07.574,Motor Imagery,2024.1.1,None,2024-04-23 14h20.24.052085 +0100,
Imagens/left.png,Imagens/down.png,"Vais imaginar o movimento de fechar e abrir o punho direito ou esquerdo, mediante te apareça as setas "Direita" ou "Esquerda". Pressione a barra do ESPAÇO para começar.","Vais imaginar o movimento de fechar e abrir ambos os punhos ou os pés, mediante te apareçam "Para cima" ou "Para baixo", respetivamente.  Pressione a barra do ESPAÇO para começar.",0,0,0,0,0,1,1,1,1,1,3,1,,,,,,,,,106.77232529999992,,,,,,,,,,,,,,,,,,,106.75740989999986,106.77232529999992,106.77232529999992,110.75469369999973,110.75471779999998,110.98609619999979,110.98609619999979,114.75633599999992,,,,,,,,,,,,,,,,,666,001,,2024-04-23_14h20.07.574,Motor Imagery,2024.1.1,None,2024-04-23 14h20.24.052085 +0100,
Imagens/right.png,Imagens/up.png,"Vais fechar e abrir o punho direito ou esquerdo, mediante te apareça as setas "Direita" ou "Esquerda". Pressione a barra do ESPAÇO para começar.","Vais fechar e abrir ambos os punhos ou os pés, mediante te apareçam as setas "Para cima" ou "Para baixo", respetivamente. Pressione a barra do ESPAÇO para começar.",0,0,0,0,0,1,1,1,2,0,4,0,,,,,,,,,114.77115319999984,,,,,,,,,,,,,,,,,,,114.75755579999986,114.77115319999984,114.77115319999984,118.75456899999972,118.75462149999976,118.80718339999976,118.80718339999976,122.7545511999997,,,,,,,,,,,,,,,,,666,001,,2024-04-23_14h20.07.574,Motor Imagery,2024.1.1,None,2024-04-23 14h20.24.052085 +0100,
Imagens/left.png,Imagens/down.png,"Vais imaginar o movimento de fechar e abrir o punho direito ou esquerdo, mediante te apareça as setas "Direita" ou "Esquerda". Pressione a barra do ESPAÇO para começar.","Vais imaginar o movimento de fechar e abrir ambos os punhos ou os pés, mediante te apareçam "Para cima" ou "Para baixo", respetivamente.  Pressione a barra do ESPAÇO para começar.",0,0,0,0,0,1,1,1,2,1,5,1,,,,,,,,,122.77016289999983,,,,,,,,,,,,,,,,,,,122.75592129999995,122.77016289999983,122.77016289999983,126.75332209999988,126.75337529999979,126.96222989999978,126.96222989999978,130.7542298999997,,,,,,,,,,,,,,,,,666,001,,2024-04-23_14h20.07.574,Motor Imagery,2024.1.1,None,2024-04-23 14h20.24.052085 +0100,
Imagens/left.png,Imagens/down.png,"Vais imaginar o movimento de fechar e abrir o punho direito ou esquerdo, mediante te apareça as setas "Direita" ou "Esquerda". Pressione a barra do ESPAÇO para começar.","Vais imaginar o movimento de fechar e abrir ambos os punhos ou os pés, mediante te apareçam "Para cima" ou "Para baixo", respetivamente.  Pressione a barra do ESPAÇO para começar.",0,0,0,0,0,1,1,1,3,0,6,1,,,,,,,,,130.7691219999997,,,,,,,,,,,,,,,,,,,130.7557695999999,130.7691219999997,130.7691219999997,134.7525412,134.75259430000006,134.93353949999982,134.93353949999982,138.75280049999992,,,,,,,,,,,,,,,,,666,001,,2024-04-23_14h20.07.574,Motor Imagery,2024.1.1,None,2024-04-23 14h20.24.052085 +0100,
Imagens/right.png,Imagens/up.png,"Vais fechar e abrir o punho direito ou esquerdo, mediante te apareça as setas "Direita" ou "Esquerda". Pressione a barra do ESPAÇO para começar.","Vais fechar e abrir ambos os punhos ou os pés, mediante te apareçam as setas "Para cima" ou "Para baixo", respetivamente. Pressione a barra do ESPAÇO para começar.",0,0,0,0,0,1,1,1,3,1,7,0,,,,,,,,,138.7680178999999,,,,,,,,,,,,,,,,,,,138.75381990000005,138.7680178999999,138.7680178999999,142.75120160000006,142.7512474,142.80156940000006,142.80156940000006,146.75107759999992,,,,,,,,,,,,,,,,,666,001,,2024-04-23_14h20.07.574,Motor Imagery,2024.1.1,None,2024-04-23 14h20.24.052085 +0100,
Imagens/left.png,Imagens/down.png,"Vais imaginar o movimento de fechar e abrir o punho direito ou esquerdo, mediante te apareça as setas "Direita" ou "Esquerda". Pressione a barra do ESPAÇO para começar.","Vais imaginar o movimento de fechar e abrir ambos os punhos ou os pés, mediante te apareçam "Para cima" ou "Para baixo", respetivamente.  Pressione a barra do ESPAÇO para começar.",0,0,0,0,0,1,1,1,,,,,,,,,,,,,,,,,,,,,,,,,,,,,,,,,,,,,,,,,,,,,,,,,,,,,,,,666,001,,2024-04-23_14h20.07.574,Motor Imagery,2024.1.1,None,2024-04-23 14h20.24.052085 +0100,
Imagens/left.png,Imagens/down.png,"Vais imaginar o movimento de fechar e abrir o punho direito ou esquerdo, mediante te apareça as setas "Direita" ou "Esquerda". Pressione a barra do ESPAÇO para começar.","Vais imaginar o movimento de fechar e abrir ambos os punhos ou os pés, mediante te apareçam "Para cima" ou "Para baixo", respetivamente.  Pressione a barra do ESPAÇO para começar.",0,0,0,0,,,,,,,,,0,0,0,0,0,0,0,1,157.39685150000014,,,,,,,,,,,,,,,156.37061099999983,156.38241049999988,157.39685150000014,157.36732249999977,157.38670839999986,157.39685150000014,157.39685150000014,161.38188179999997,,,,,,,146.77025550000008,146.81379329999982,146.81379329999982,156.36905049999996,space,156.3622577000001,None,161.38191329999972,161.48130589999982,161.48130589999982,165.38247569999976,,,,666,001,,2024-04-23_14h20.07.574,Motor Imagery,2024.1.1,None,2024-04-23 14h20.24.052085 +0100,
Imagens/right.png,Imagens/up.png,"Vais fechar e abrir o punho direito ou esquerdo, mediante te apareça as setas "Direita" ou "Esquerda". Pressione a barra do ESPAÇO para começar.","Vais fechar e abrir ambos os punhos ou os pés, mediante te apareçam as setas "Para cima" ou "Para baixo", respetivamente. Pressione a barra do ESPAÇO para começar.",0,0,0,0,,,,,,,,,0,0,0,0,0,1,1,0,165.39806339999996,,,,,,,,,,,,,,,,,,,165.3837165,165.39806339999996,165.39806339999996,169.3814686999999,,,,,,,,,,,,,,169.38152300000002,169.61644660000002,169.61644660000002,173.3820126999999,,,,666,001,,2024-04-23_14h20.07.574,Motor Imagery,2024.1.1,None,2024-04-23 14h20.24.052085 +0100,
Imagens/left.png,Imagens/down.png,"Vais imaginar o movimento de fechar e abrir o punho direito ou esquerdo, mediante te apareça as setas "Direita" ou "Esquerda". Pressione a barra do ESPAÇO para começar.","Vais imaginar o movimento de fechar e abrir ambos os punhos ou os pés, mediante te apareçam "Para cima" ou "Para baixo", respetivamente.  Pressione a barra do ESPAÇO para começar.",0,0,0,0,,,,,,,,,0,0,0,0,1,0,2,1,173.3972964999998,,,,,,,,,,,,,,,,,,,173.38311539999995,173.3972964999998,173.3972964999998,177.3804083,,,,,,,,,,,,,,177.3804623000001,177.51069229999985,177.51069229999985,181.38029959999994,,,,666,001,,2024-04-23_14h20.07.574,Motor Imagery,2024.1.1,None,2024-04-23 14h20.24.052085 +0100,
Imagens/right.png,Imagens/up.png,"Vais fechar e abrir o punho direito ou esquerdo, mediante te apareça as setas "Direita" ou "Esquerda". Pressione a barra do ESPAÇO para começar.","Vais fechar e abrir ambos os punhos ou os pés, mediante te apareçam as setas "Para cima" ou "Para baixo", respetivamente. Pressione a barra do ESPAÇO para começar.",0,0,0,0,,,,,,,,,0,0,0,0,1,1,3,0,181.39604529999997,,,,,,,,,,,,,,,,,,,181.38156089999984,181.39604529999997,181.39604529999997,185.37925240000004,,,,,,,,,,,,,,185.37930479999977,185.5321571999998,185.5321571999998,189.37944319999997,,,,666,001,,2024-04-23_14h20.07.574,Motor Imagery,2024.1.1,None,2024-04-23 14h20.24.052085 +0100,
Imagens/right.png,Imagens/up.png,"Vais fechar e abrir o punho direito ou esquerdo, mediante te apareça as setas "Direita" ou "Esquerda". Pressione a barra do ESPAÇO para começar.","Vais fechar e abrir ambos os punhos ou os pés, mediante te apareçam as setas "Para cima" ou "Para baixo", respetivamente. Pressione a barra do ESPAÇO para começar.",0,0,0,0,,,,,,,,,0,0,0,0,2,0,4,0,189.39474930000006,,,,,,,,,,,,,,,,,,,189.3802323,189.39474930000006,189.39474930000006,193.37782049999987,,,,,,,,,,,,,,193.37785499999973,193.50727899999993,193.50727899999993,197.3782825999997,,,,666,001,,2024-04-23_14h20.07.574,Motor Imagery,2024.1.1,None,2024-04-23 14h20.24.052085 +0100,
Imagens/left.png,Imagens/down.png,"Vais imaginar o movimento de fechar e abrir o punho direito ou esquerdo, mediante te apareça as setas "Direita" ou "Esquerda". Pressione a barra do ESPAÇO para começar.","Vais imaginar o movimento de fechar e abrir ambos os punhos ou os pés, mediante te apareçam "Para cima" ou "Para baixo", respetivamente.  Pressione a barra do ESPAÇO para começar.",0,0,0,0,,,,,,,,,0,0,0,0,2,1,5,1,197.39361559999998,,,,,,,,,,,,,,,,,,,197.3789351999999,197.39361559999998,197.39361559999998,201.37680219999993,,,,,,,,,,,,,,201.3768316999999,201.41869429999997,201.41869429999997,205.37712439999996,,,,666,001,,2024-04-23_14h20.07.574,Motor Imagery,2024.1.1,None,2024-04-23 14h20.24.052085 +0100,
Imagens/left.png,Imagens/down.png,"Vais imaginar o movimento de fechar e abrir o punho direito ou esquerdo, mediante te apareça as setas "Direita" ou "Esquerda". Pressione a barra do ESPAÇO para começar.","Vais imaginar o movimento de fechar e abrir ambos os punhos ou os pés, mediante te apareçam "Para cima" ou "Para baixo", respetivamente.  Pressione a barra do ESPAÇO para começar.",0,0,0,0,,,,,,,,,0,0,0,0,3,0,6,1,205.39294530000006,,,,,,,,,,,,,,,,,,,205.37827349999998,205.39294530000006,205.39294530000006,209.3760812999999,,,,,,,,,,,,,,209.37613490000012,209.43785260000004,209.43785260000004,213.3759817,,,,666,001,,2024-04-23_14h20.07.574,Motor Imagery,2024.1.1,None,2024-04-23 14h20.24.052085 +0100,
Imagens/right.png,Imagens/up.png,"Vais fechar e abrir o punho direito ou esquerdo, mediante te apareça as setas "Direita" ou "Esquerda". Pressione a barra do ESPAÇO para começar.","Vais fechar e abrir ambos os punhos ou os pés, mediante te apareçam as setas "Para cima" ou "Para baixo", respetivamente. Pressione a barra do ESPAÇO para começar.",0,0,0,0,,,,,,,,,0,0,0,0,3,1,7,0,213.3919802999999,,,,,,,,,,,,,,,,,,,213.37714629999982,213.3919802999999,213.3919802999999,217.3745054000001,,,,,,,,,,,,,,217.37454489999982,217.56457550000005,217.56457550000005,221.3757660000001,,,,666,001,,2024-04-23_14h20.07.574,Motor Imagery,2024.1.1,None,2024-04-23 14h20.24.052085 +0100,
Imagens/right.png,Imagens/up.png,"Vais fechar e abrir o punho direito ou esquerdo, mediante te apareça as setas "Direita" ou "Esquerda". Pressione a barra do ESPAÇO para começar.","Vais fechar e abrir ambos os punhos ou os pés, mediante te apareçam as setas "Para cima" ou "Para baixo", respetivamente. Pressione a barra do ESPAÇO para começar.",0,0,0,0,,,,,,,,,0,0,0,0,,,,,,,,,,,,,,,,,,,,,,,,,,,,,,,,,,,,,,,,,,,,,,,,666,001,,2024-04-23_14h20.07.574,Motor Imagery,2024.1.1,None,2024-04-23 14h20.24.052085 +0100,
Imagens/right.png,Imagens/up.png,"Vais fechar e abrir o punho direito ou esquerdo, mediante te apareça as setas "Direita" ou "Esquerda". Pressione a barra do ESPAÇO para começar.","Vais fechar e abrir ambos os punhos ou os pés, mediante te apareçam as setas "Para cima" ou "Para baixo", respetivamente. Pressione a barra do ESPAÇO para começar.",0,0,0,0,,,,,,,,,0,1,1,1,0,0,0,0,236.7062189999997,,,,,,,,,,,,,,,235.67724820000012,235.68927480000002,236.7062189999997,236.6738231999998,236.695381,236.7062189999997,236.7062189999997,240.6889928999999,,,,,,,221.37804389999974,221.4361214999999,221.4361214999999,235.67608829999972,space,235.65873169999986,None,240.68910099999994,240.84599949999983,240.84599949999983,244.68921479999972,,,,666,001,,2024-04-23_14h20.07.574,Motor Imagery,2024.1.1,None,2024-04-23 14h20.24.052085 +0100,
Imagens/left.png,Imagens/down.png,"Vais imaginar o movimento de fechar e abrir o punho direito ou esquerdo, mediante te apareça as setas "Direita" ou "Esquerda". Pressione a barra do ESPAÇO para começar.","Vais imaginar o movimento de fechar e abrir ambos os punhos ou os pés, mediante te apareçam "Para cima" ou "Para baixo", respetivamente.  Pressione a barra do ESPAÇO para começar.",0,0,0,0,,,,,,,,,0,1,1,1,0,1,1,1,244.70453499999985,,,,,,,,,,,,,,,,,,,244.69005019999986,244.70453499999985,244.70453499999985,248.68753349999997,,,,,,,,,,,,,,248.68757019999975,248.7339649999999,248.7339649999999,252.68691549999994,,,,666,001,,2024-04-23_14h20.07.574,Motor Imagery,2024.1.1,None,2024-04-23 14h20.24.052085 +0100,
Imagens/left.png,Imagens/down.png,"Vais imaginar o movimento de fechar e abrir o punho direito ou esquerdo, mediante te apareça as setas "Direita" ou "Esquerda". Pressione a barra do ESPAÇO para começar.","Vais imaginar o movimento de fechar e abrir ambos os punhos ou os pés, mediante te apareçam "Para cima" ou "Para baixo", respetivamente.  Pressione a barra do ESPAÇO para começar.",0,0,0,0,,,,,,,,,0,1,1,1,1,0,2,1,252.70323559999997,,,,,,,,,,,,,,,,,,,252.6874699,252.70323559999997,252.70323559999997,256.6861801,,,,,,,,,,,,,,256.6862142,256.7447284,256.7447284,260.6865963,,,,666,001,,2024-04-23_14h20.07.574,Motor Imagery,2024.1.1,None,2024-04-23 14h20.24.052085 +0100,
Imagens/right.png,Imagens/up.png,"Vais fechar e abrir o punho direito ou esquerdo, mediante te apareça as setas "Direita" ou "Esquerda". Pressione a barra do ESPAÇO para começar.","Vais fechar e abrir ambos os punhos ou os pés, mediante te apareçam as setas "Para cima" ou "Para baixo", respetivamente. Pressione a barra do ESPAÇO para começar.",0,0,0,0,,,,,,,,,0,1,1,1,1,1,3,0,260.7025235000001,,,,,,,,,,,,,,,,,,,260.68793800000003,260.7025235000001,260.7025235000001,264.6858735999999,,,,,,,,,,,,,,264.6859277999997,264.95117549999986,264.95117549999986,268.6862997999997,,,,666,001,,2024-04-23_14h20.07.574,Motor Imagery,2024.1.1,None,2024-04-23 14h20.24.052085 +0100,
Imagens/left.png,Imagens/down.png,"Vais imaginar o movimento de fechar e abrir o punho direito ou esquerdo, mediante te apareça as setas "Direita" ou "Esquerda". Pressione a barra do ESPAÇO para começar.","Vais imaginar o movimento de fechar e abrir ambos os punhos ou os pés, mediante te apareçam "Para cima" ou "Para baixo", respetivamente.  Pressione a barra do ESPAÇO para começar.",0,0,0,0,,,,,,,,,0,1,1,1,2,0,4,1,268.7015729,,,,,,,,,,,,,,,,,,,268.6875670999998,268.7015729,268.7015729,272.6846717999997,,,,,,,,,,,,,,272.68473270000004,272.74494589999995,272.74494589999995,276.68454269999984,,,,666,001,,2024-04-23_14h20.07.574,Motor Imagery,2024.1.1,None,2024-04-23 14h20.24.052085 +0100,
Imagens/right.png,Imagens/up.png,"Vais fechar e abrir o punho direito ou esquerdo, mediante te apareça as setas "Direita" ou "Esquerda". Pressione a barra do ESPAÇO para começar.","Vais fechar e abrir ambos os punhos ou os pés, mediante te apareçam as setas "Para cima" ou "Para baixo", respetivamente. Pressione a barra do ESPAÇO para começar.",0,0,0,0,,,,,,,,,0,1,1,1,2,1,5,0,276.7005795,,,,,,,,,,,,,,,,,,,276.6857176999997,276.7005795,276.7005795,280.6837922999998,,,,,,,,,,,,,,280.68384590000005,280.8446767999999,280.8446767999999,284.6837304999999,,,,666,001,,2024-04-23_14h20.07.574,Motor Imagery,2024.1.1,None,2024-04-23 14h20.24.052085 +0100,
Imagens/left.png,Imagens/down.png,"Vais imaginar o movimento de fechar e abrir o punho direito ou esquerdo, mediante te apareça as setas "Direita" ou "Esquerda". Pressione a barra do ESPAÇO para começar.","Vais imaginar o movimento de fechar e abrir ambos os punhos ou os pés, mediante te apareçam "Para cima" ou "Para baixo", respetivamente.  Pressione a barra do ESPAÇO para começar.",0,0,0,0,,,,,,,,,0,1,1,1,3,0,6,1,284.69934609999973,,,,,,,,,,,,,,,,,,,284.6845201000001,284.69934609999973,284.69934609999973,288.6822741000001,,,,,,,,,,,,,,288.6823083999998,288.73583819999976,288.73583819999976,292.6825740999998,,,,666,001,,2024-04-23_14h20.07.574,Motor Imagery,2024.1.1,None,2024-04-23 14h20.24.052085 +0100,
Imagens/right.png,Imagens/up.png,"Vais fechar e abrir o punho direito ou esquerdo, mediante te apareça as setas "Direita" ou "Esquerda". Pressione a barra do ESPAÇO para começar.","Vais fechar e abrir ambos os punhos ou os pés, mediante te apareçam as setas "Para cima" ou "Para baixo", respetivamente. Pressione a barra do ESPAÇO para começar.",0,0,0,0,,,,,,,,,0,1,1,1,3,1,7,0,292.6984542,,,,,,,,,,,,,,,,,,,292.6838051,292.6984542,292.6984542,296.6816475999999,,,,,,,,,,,,,,296.68170299999974,296.8669285000001,296.8669285000001,300.6825719999997,,,,666,001,,2024-04-23_14h20.07.574,Motor Imagery,2024.1.1,None,2024-04-23 14h20.24.052085 +0100,
Imagens/left.png,Imagens/down.png,"Vais imaginar o movimento de fechar e abrir o punho direito ou esquerdo, mediante te apareça as setas "Direita" ou "Esquerda". Pressione a barra do ESPAÇO para começar.","Vais imaginar o movimento de fechar e abrir ambos os punhos ou os pés, mediante te apareçam "Para cima" ou "Para baixo", respetivamente.  Pressione a barra do ESPAÇO para começar.",0,0,0,0,,,,,,,,,0,1,1,1,,,,,,,,,,,,,,,,,,,,,,,,,,,,,,,,,,,,,,,,,,,,,,,,666,001,,2024-04-23_14h20.07.574,Motor Imagery,2024.1.1,None,2024-04-23 14h20.24.052085 +0100,
,,,,0,0,0,0,,,,,,,,,,,,,,,,,,,,,,,,,,,,,,,,,,,,,,,,,,,,,,,,,,,,,,,,,,,,666,001,,2024-04-23_14h20.07.574,Motor Imagery,2024.1.1,None,2024-04-23 14h20.24.052085 +0100,
Imagens/right.png,Imagens/up.png,"Vais fechar e abrir o punho direito ou esquerdo, mediante te apareça as setas "Direita" ou "Esquerda". Pressione a barra do ESPAÇO para começar.","Vais fechar e abrir ambos os punhos ou os pés, mediante te apareçam as setas "Para cima" ou "Para baixo", respetivamente. Pressione a barra do ESPAÇO para começar.",1,0,1,0,0,0,0,0,0,0,0,0,,,,,,,,,331.3781915999998,,,,,,,,300.7065567999998,300.74401050000006,300.74401050000006,330.34700599999996,space,330.34434340000007,None,330.3481966999998,330.3600452999999,331.3781915999998,331.3453360999997,331.36711809999997,331.3781915999998,331.3781915999998,335.3602464999999,335.3603036999998,335.4193946999999,335.4193946999999,339.3600781,,,,,,,,,,,,,,,,,666,001,,2024-04-23_14h20.07.574,Motor Imagery,2024.1.1,None,2024-04-23 14h20.24.052085 +0100,
Imagens/left.png,Imagens/down.png,"Vais imaginar o movimento de fechar e abrir o punho direito ou esquerdo, mediante te apareça as setas "Direita" ou "Esquerda". Pressione a barra do ESPAÇO para começar.","Vais imaginar o movimento de fechar e abrir ambos os punhos ou os pés, mediante te apareçam "Para cima" ou "Para baixo", respetivamente.  Pressione a barra do ESPAÇO para começar.",1,0,1,0,0,0,0,0,0,1,1,1,,,,,,,,,339.37587489999987,,,,,,,,,,,,,,,,,,,339.36122149999983,339.37587489999987,339.37587489999987,343.35873760000004,343.3587695000001,343.6006250999999,343.6006250999999,347.3588037999998,,,,,,,,,,,,,,,,,666,001,,2024-04-23_14h20.07.574,Motor Imagery,2024.1.1,None,2024-04-23 14h20.24.052085 +0100,
Imagens/right.png,Imagens/up.png,"Vais fechar e abrir o punho direito ou esquerdo, mediante te apareça as setas "Direita" ou "Esquerda". Pressione a barra do ESPAÇO para começar.","Vais fechar e abrir ambos os punhos ou os pés, mediante te apareçam as setas "Para cima" ou "Para baixo", respetivamente. Pressione a barra do ESPAÇO para começar.",1,0,1,0,0,0,0,0,1,0,2,0,,,,,,,,,347.3743602999998,,,,,,,,,,,,,,,,,,,347.35937349999995,347.3743602999998,347.3743602999998,351.3572657999998,351.3572905000001,351.38752669999985,351.38752669999985,355.35797319999983,,,,,,,,,,,,,,,,,666,001,,2024-04-23_14h20.07.574,Motor Imagery,2024.1.1,None,2024-04-23 14h20.24.052085 +0100,
Imagens/left.png,Imagens/down.png,"Vais imaginar o movimento de fechar e abrir o punho direito ou esquerdo, mediante te apareça as setas "Direita" ou "Esquerda". Pressione a barra do ESPAÇO para começar.","Vais imaginar o movimento de fechar e abrir ambos os punhos ou os pés, mediante te apareçam "Para cima" ou "Para baixo", respetivamente.  Pressione a barra do ESPAÇO para começar.",1,0,1,0,0,0,0,0,1,1,3,1,,,,,,,,,355.37381129999994,,,,,,,,,,,,,,,,,,,355.3592048999999,355.37381129999994,355.37381129999994,359.3570801999999,359.3571388999999,359.5513953999998,359.5513953999998,363.35788890000003,,,,,,,,,,,,,,,,,666,001,,2024-04-23_14h20.07.574,Motor Imagery,2024.1.1,None,2024-04-23 14h20.24.052085 +0100,
Imagens/left.png,Imagens/down.png,"Vais imaginar o movimento de fechar e abrir o punho direito ou esquerdo, mediante te apareça as setas "Direita" ou "Esquerda". Pressione a barra do ESPAÇO para começar.","Vais imaginar o movimento de fechar e abrir ambos os punhos ou os pés, mediante te apareçam "Para cima" ou "Para baixo", respetivamente.  Pressione a barra do ESPAÇO para começar.",1,0,1,0,0,0,0,0,2,0,4,1,,,,,,,,,363.37266929999987,,,,,,,,,,,,,,,,,,,363.35932939999975,363.37266929999987,363.37266929999987,367.35595710000007,367.35600939999995,367.53060619999997,367.53060619999997,371.3570394999997,,,,,,,,,,,,,,,,,666,001,,2024-04-23_14h20.07.574,Motor Imagery,2024.1.1,None,2024-04-23 14h20.24.052085 +0100,
Imagens/right.png,Imagens/up.png,"Vais fechar e abrir o punho direito ou esquerdo, mediante te apareça as setas "Direita" ou "Esquerda". Pressione a barra do ESPAÇO para começar.","Vais fechar e abrir ambos os punhos ou os pés, mediante te apareçam as setas "Para cima" ou "Para baixo", respetivamente. Pressione a barra do ESPAÇO para começar.",1,0,1,0,0,0,0,0,2,1,5,0,,,,,,,,,371.3718776999999,,,,,,,,,,,,,,,,,,,371.3584390000001,371.3718776999999,371.3718776999999,375.35448339999994,375.3545340999999,375.39945929999976,375.39945929999976,379.35455060000004,,,,,,,,,,,,,,,,,666,001,,2024-04-23_14h20.07.574,Motor Imagery,2024.1.1,None,2024-04-23 14h20.24.052085 +0100,
Imagens/right.png,Imagens/up.png,"Vais fechar e abrir o punho direito ou esquerdo, mediante te apareça as setas "Direita" ou "Esquerda". Pressione a barra do ESPAÇO para começar.","Vais fechar e abrir ambos os punhos ou os pés, mediante te apareçam as setas "Para cima" ou "Para baixo", respetivamente. Pressione a barra do ESPAÇO para começar.",1,0,1,0,0,0,0,0,3,0,6,0,,,,,,,,,379.3701656999997,,,,,,,,,,,,,,,,,,,379.35548259999996,379.3701656999997,379.3701656999997,383.3538951999999,383.35394799999995,383.40593769999987,383.40593769999987,387.35394159999987,,,,,,,,,,,,,,,,,666,001,,2024-04-23_14h20.07.574,Motor Imagery,2024.1.1,None,2024-04-23 14h20.24.052085 +0100,
Imagens/left.png,Imagens/down.png,"Vais imaginar o movimento de fechar e abrir o punho direito ou esquerdo, mediante te apareça as setas "Direita" ou "Esquerda". Pressione a barra do ESPAÇO para começar.","Vais imaginar o movimento de fechar e abrir ambos os punhos ou os pés, mediante te apareçam "Para cima" ou "Para baixo", respetivamente.  Pressione a barra do ESPAÇO para começar.",1,0,1,0,0,0,0,0,3,1,7,1,,,,,,,,,387.36971189999986,,,,,,,,,,,,,,,,,,,387.3550716999998,387.36971189999986,387.36971189999986,391.3528873999999,391.35294049999993,391.60042169999997,391.60042169999997,395.35312939999994,,,,,,,,,,,,,,,,,666,001,,2024-04-23_14h20.07.574,Motor Imagery,2024.1.1,None,2024-04-23 14h20.24.052085 +0100,
Imagens/right.png,Imagens/up.png,"Vais fechar e abrir o punho direito ou esquerdo, mediante te apareça as setas "Direita" ou "Esquerda". Pressione a barra do ESPAÇO para começar.","Vais fechar e abrir ambos os punhos ou os pés, mediante te apareçam as setas "Para cima" ou "Para baixo", respetivamente. Pressione a barra do ESPAÇO para começar.",1,0,1,0,0,0,0,0,,,,,,,,,,,,,,,,,,,,,,,,,,,,,,,,,,,,,,,,,,,,,,,,,,,,,,,,666,001,,2024-04-23_14h20.07.574,Motor Imagery,2024.1.1,None,2024-04-23 14h20.24.052085 +0100,
Imagens/right.png,Imagens/up.png,"Vais fechar e abrir o punho direito ou esquerdo, mediante te apareça as setas "Direita" ou "Esquerda". Pressione a barra do ESPAÇO para começar.","Vais fechar e abrir ambos os punhos ou os pés, mediante te apareçam as setas "Para cima" ou "Para baixo", respetivamente. Pressione a barra do ESPAÇO para começar.",1,0,1,0,0,1,1,1,0,0,0,0,,,,,,,,,398.3622462999997,,,,,,,,395.3542342999999,395.3905537999999,395.3905537999999,397.33863919999976,space,397.3352282000001,None,397.33958200000006,397.3515481999998,398.3622462999997,398.3362758999997,398.3533352999998,398.3622462999997,398.3622462999997,402.35150639999983,402.3515500999997,402.41492549999975,402.41492549999975,406.35138879999977,,,,,,,,,,,,,,,,,666,001,,2024-04-23_14h20.07.574,Motor Imagery,2024.1.1,None,2024-04-23 14h20.24.052085 +0100,
Imagens/left.png,Imagens/down.png,"Vais imaginar o movimento de fechar e abrir o punho direito ou esquerdo, mediante te apareça as setas "Direita" ou "Esquerda". Pressione a barra do ESPAÇO para começar.","Vais imaginar o movimento de fechar e abrir ambos os punhos ou os pés, mediante te apareçam "Para cima" ou "Para baixo", respetivamente.  Pressione a barra do ESPAÇO para começar.",1,0,1,0,0,1,1,1,0,1,1,1,,,,,,,,,406.3672768000001,,,,,,,,,,,,,,,,,,,406.35254639999994,406.3672768000001,406.3672768000001,410.3500432999999,410.35007719999976,410.6149826000001,410.6149826000001,414.35106050000013,,,,,,,,,,,,,,,,,666,001,,2024-04-23_14h20.07.574,Motor Imagery,2024.1.1,None,2024-04-23 14h20.24.052085 +0100,
Imagens/right.png,Imagens/up.png,"Vais fechar e abrir o punho direito ou esquerdo, mediante te apareça as setas "Direita" ou "Esquerda". Pressione a barra do ESPAÇO para começar.","Vais fechar e abrir ambos os punhos ou os pés, mediante te apareçam as setas "Para cima" ou "Para baixo", respetivamente. Pressione a barra do ESPAÇO para começar.",1,0,1,0,0,1,1,1,1,0,2,0,,,,,,,,,414.3663840999998,,,,,,,,,,,,,,,,,,,414.3522613,414.3663840999998,414.3663840999998,418.34965710000006,418.3497091999998,418.4101919,418.4101919,422.34965269999975,,,,,,,,,,,,,,,,,666,001,,2024-04-23_14h20.07.574,Motor Imagery,2024.1.1,None,2024-04-23 14h20.24.052085 +0100,
Imagens/left.png,Imagens/down.png,"Vais imaginar o movimento de fechar e abrir o punho direito ou esquerdo, mediante te apareça as setas "Direita" ou "Esquerda". Pressione a barra do ESPAÇO para começar.","Vais imaginar o movimento de fechar e abrir ambos os punhos ou os pés, mediante te apareçam "Para cima" ou "Para baixo", respetivamente.  Pressione a barra do ESPAÇO para começar.",1,0,1,0,0,1,1,1,1,1,3,1,,,,,,,,,422.3653836999997,,,,,,,,,,,,,,,,,,,422.3509842999997,422.3653836999997,422.3653836999997,426.3483769999998,426.34842930000013,426.52820569999994,426.52820569999994,430.3491967,,,,,,,,,,,,,,,,,666,001,,2024-04-23_14h20.07.574,Motor Imagery,2024.1.1,None,2024-04-23 14h20.24.052085 +0100,
Imagens/right.png,Imagens/up.png,"Vais fechar e abrir o punho direito ou esquerdo, mediante te apareça as setas "Direita" ou "Esquerda". Pressione a barra do ESPAÇO para começar.","Vais fechar e abrir ambos os punhos ou os pés, mediante te apareçam as setas "Para cima" ou "Para baixo", respetivamente. Pressione a barra do ESPAÇO para começar.",1,0,1,0,0,1,1,1,2,0,4,0,,,,,,,,,430.3642590999998,,,,,,,,,,,,,,,,,,,430.3505332999998,430.3642590999998,430.3642590999998,434.3474025999999,434.3474556000001,434.40189680000003,434.40189680000003,438.3475322999998,,,,,,,,,,,,,,,,,666,001,,2024-04-23_14h20.07.574,Motor Imagery,2024.1.1,None,2024-04-23 14h20.24.052085 +0100,
Imagens/left.png,Imagens/down.png,"Vais imaginar o movimento de fechar e abrir o punho direito ou esquerdo, mediante te apareça as setas "Direita" ou "Esquerda". Pressione a barra do ESPAÇO para começar.","Vais imaginar o movimento de fechar e abrir ambos os punhos ou os pés, mediante te apareçam "Para cima" ou "Para baixo", respetivamente.  Pressione a barra do ESPAÇO para começar.",1,0,1,0,0,1,1,1,2,1,5,1,,,,,,,,,438.36317819999977,,,,,,,,,,,,,,,,,,,438.3486981000001,438.36317819999977,438.36317819999977,442.3462801999999,442.3463330999998,442.54511409999986,442.54511409999986,446.34719369999993,,,,,,,,,,,,,,,,,666,001,,2024-04-23_14h20.07.574,Motor Imagery,2024.1.1,None,2024-04-23 14h20.24.052085 +0100,
Imagens/left.png,Imagens/down.png,"Vais imaginar o movimento de fechar e abrir o punho direito ou esquerdo, mediante te apareça as setas "Direita" ou "Esquerda". Pressione a barra do ESPAÇO para começar.","Vais imaginar o movimento de fechar e abrir ambos os punhos ou os pés, mediante te apareçam "Para cima" ou "Para baixo", respetivamente.  Pressione a barra do ESPAÇO para começar.",1,0,1,0,0,1,1,1,3,0,6,1,,,,,,,,,446.36241889999974,,,,,,,,,,,,,,,,,,,446.3483461999999,446.36241889999974,446.36241889999974,450.3453813000001,450.3454348999999,450.51809300000014,450.51809300000014,454.34568899999977,,,,,,,,,,,,,,,,,666,001,,2024-04-23_14h20.07.574,Motor Imagery,2024.1.1,None,2024-04-23 14h20.24.052085 +0100,
Imagens/right.png,Imagens/up.png,"Vais fechar e abrir o punho direito ou esquerdo, mediante te apareça as setas "Direita" ou "Esquerda". Pressione a barra do ESPAÇO para começar.","Vais fechar e abrir ambos os punhos ou os pés, mediante te apareçam as setas "Para cima" ou "Para baixo", respetivamente. Pressione a barra do ESPAÇO para começar.",1,0,1,0,0,1,1,1,3,1,7,0,,,,,,,,,454.3608964,,,,,,,,,,,,,,,,,,,454.34678099999974,454.3608964,454.3608964,458.3442801000001,458.3443278999998,458.3961521000001,458.3961521000001,462.3440406999998,,,,,,,,,,,,,,,,,666,001,,2024-04-23_14h20.07.574,Motor Imagery,2024.1.1,None,2024-04-23 14h20.24.052085 +0100,
Imagens/left.png,Imagens/down.png,"Vais imaginar o movimento de fechar e abrir o punho direito ou esquerdo, mediante te apareça as setas "Direita" ou "Esquerda". Pressione a barra do ESPAÇO para começar.","Vais imaginar o movimento de fechar e abrir ambos os punhos ou os pés, mediante te apareçam "Para cima" ou "Para baixo", respetivamente.  Pressione a barra do ESPAÇO para começar.",1,0,1,0,0,1,1,1,,,,,,,,,,,,,,,,,,,,,,,,,,,,,,,,,,,,,,,,,,,,,,,,,,,,,,,,666,001,,2024-04-23_14h20.07.574,Motor Imagery,2024.1.1,None,2024-04-23 14h20.24.052085 +0100,
Imagens/right.png,Imagens/up.png,"Vais fechar e abrir o punho direito ou esquerdo, mediante te apareça as setas "Direita" ou "Esquerda". Pressione a barra do ESPAÇO para começar.","Vais fechar e abrir ambos os punhos ou os pés, mediante te apareçam as setas "Para cima" ou "Para baixo", respetivamente. Pressione a barra do ESPAÇO para começar.",1,0,1,0,,,,,,,,,0,0,0,0,0,0,0,0,465.02425129999983,,,,,,,,,,,,,,,463.9978350000001,464.0097860000001,465.02425129999983,464.99469580000004,465.01431490000004,465.02425129999983,465.02425129999983,469.0095980000001,,,,,,,462.3631336999997,462.39267599999994,462.39267599999994,463.99630279999974,space,463.97836849999976,None,469.0096460999998,469.15557179999996,469.15557179999996,473.01046559999986,,,,666,001,,2024-04-23_14h20.07.574,Motor Imagery,2024.1.1,None,2024-04-23 14h20.24.052085 +0100,
Imagens/left.png,Imagens/down.png,"Vais imaginar o movimento de fechar e abrir o punho direito ou esquerdo, mediante te apareça as setas "Direita" ou "Esquerda". Pressione a barra do ESPAÇO para começar.","Vais imaginar o movimento de fechar e abrir ambos os punhos ou os pés, mediante te apareçam "Para cima" ou "Para baixo", respetivamente.  Pressione a barra do ESPAÇO para começar.",1,0,1,0,,,,,,,,,0,0,0,0,0,1,1,1,473.0254777,,,,,,,,,,,,,,,,,,,473.0116665999999,473.0254777,473.0254777,477.0086934000001,,,,,,,,,,,,,,477.0087453000001,477.07712820000006,477.07712820000006,481.00855909999973,,,,666,001,,2024-04-23_14h20.07.574,Motor Imagery,2024.1.1,None,2024-04-23 14h20.24.052085 +0100,
Imagens/left.png,Imagens/down.png,"Vais imaginar o movimento de fechar e abrir o punho direito ou esquerdo, mediante te apareça as setas "Direita" ou "Esquerda". Pressione a barra do ESPAÇO para começar.","Vais imaginar o movimento de fechar e abrir ambos os punhos ou os pés, mediante te apareçam "Para cima" ou "Para baixo", respetivamente.  Pressione a barra do ESPAÇO para começar.",1,0,1,0,,,,,,,,,0,0,0,0,1,0,2,1,481.0244736999998,,,,,,,,,,,,,,,,,,,481.0097974,481.0244736999998,481.0244736999998,485.00763159999997,,,,,,,,,,,,,,485.0076845999997,485.08080010000003,485.08080010000003,489.00741160000007,,,,666,001,,2024-04-23_14h20.07.574,Motor Imagery,2024.1.1,None,2024-04-23 14h20.24.052085 +0100,
Imagens/right.png,Imagens/up.png,"Vais fechar e abrir o punho direito ou esquerdo, mediante te apareça as setas "Direita" ou "Esquerda". Pressione a barra do ESPAÇO para começar.","Vais fechar e abrir ambos os punhos ou os pés, mediante te apareçam as setas "Para cima" ou "Para baixo", respetivamente. Pressione a barra do ESPAÇO para começar.",1,0,1,0,,,,,,,,,0,0,0,0,1,1,3,0,489.02338699999973,,,,,,,,,,,,,,,,,,,489.0086317999999,489.02338699999973,489.02338699999973,493.00659129999985,,,,,,,,,,,,,,493.00664400000005,493.17480449999994,493.17480449999994,497.00720939999974,,,,666,001,,2024-04-23_14h20.07.574,Motor Imagery,2024.1.1,None,2024-04-23 14h20.24.052085 +0100,
Imagens/right.png,Imagens/up.png,"Vais fechar e abrir o punho direito ou esquerdo, mediante te apareça as setas "Direita" ou "Esquerda". Pressione a barra do ESPAÇO para começar.","Vais fechar e abrir ambos os punhos ou os pés, mediante te apareçam as setas "Para cima" ou "Para baixo", respetivamente. Pressione a barra do ESPAÇO para começar.",1,0,1,0,,,,,,,,,0,0,0,0,2,0,4,0,497.0224226999999,,,,,,,,,,,,,,,,,,,497.0084151000001,497.0224226999999,497.0224226999999,501.0055871999998,,,,,,,,,,,,,,501.0056389000001,501.14656749999995,501.14656749999995,505.00650640000003,,,,666,001,,2024-04-23_14h20.07.574,Motor Imagery,2024.1.1,None,2024-04-23 14h20.24.052085 +0100,
Imagens/left.png,Imagens/down.png,"Vais imaginar o movimento de fechar e abrir o punho direito ou esquerdo, mediante te apareça as setas "Direita" ou "Esquerda". Pressione a barra do ESPAÇO para começar.","Vais imaginar o movimento de fechar e abrir ambos os punhos ou os pés, mediante te apareçam "Para cima" ou "Para baixo", respetivamente.  Pressione a barra do ESPAÇO para começar.",1,0,1,0,,,,,,,,,0,0,0,0,2,1,5,1,505.02149770000005,,,,,,,,,,,,,,,,,,,505.00767659999974,505.02149770000005,505.02149770000005,509.0047311999997,,,,,,,,,,,,,,509.00478410000005,509.0731375999999,509.0731375999999,513.0045906,,,,666,001,,2024-04-23_14h20.07.574,Motor Imagery,2024.1.1,None,2024-04-23 14h20.24.052085 +0100,
Imagens/right.png,Imagens/up.png,"Vais fechar e abrir o punho direito ou esquerdo, mediante te apareça as setas "Direita" ou "Esquerda". Pressione a barra do ESPAÇO para começar.","Vais fechar e abrir ambos os punhos ou os pés, mediante te apareçam as setas "Para cima" ou "Para baixo", respetivamente. Pressione a barra do ESPAÇO para começar.",1,0,1,0,,,,,,,,,0,0,0,0,3,0,6,0,513.0205080000001,,,,,,,,,,,,,,,,,,,513.0058202,513.0205080000001,513.0205080000001,517.0037314000001,,,,,,,,,,,,,,517.0037831999998,517.1505048999998,517.1505048999998,521.0043734999999,,,,666,001,,2024-04-23_14h20.07.574,Motor Imagery,2024.1.1,None,2024-04-23 14h20.24.052085 +0100,
Imagens/left.png,Imagens/down.png,"Vais imaginar o movimento de fechar e abrir o punho direito ou esquerdo, mediante te apareça as setas "Direita" ou "Esquerda". Pressione a barra do ESPAÇO para começar.","Vais imaginar o movimento de fechar e abrir ambos os punhos ou os pés, mediante te apareçam "Para cima" ou "Para baixo", respetivamente.  Pressione a barra do ESPAÇO para começar.",1,0,1,0,,,,,,,,,0,0,0,0,3,1,7,1,521.0192687999997,,,,,,,,,,,,,,,,,,,521.0054992999999,521.0192687999997,521.0192687999997,525.0024669999998,,,,,,,,,,,,,,525.0025197999998,525.0669893999998,525.0669893999998,529.0023226999997,,,,666,001,,2024-04-23_14h20.07.574,Motor Imagery,2024.1.1,None,2024-04-23 14h20.24.052085 +0100,
Imagens/right.png,Imagens/up.png,"Vais fechar e abrir o punho direito ou esquerdo, mediante te apareça as setas "Direita" ou "Esquerda". Pressione a barra do ESPAÇO para começar.","Vais fechar e abrir ambos os punhos ou os pés, mediante te apareçam as setas "Para cima" ou "Para baixo", respetivamente. Pressione a barra do ESPAÇO para começar.",1,0,1,0,,,,,,,,,0,0,0,0,,,,,,,,,,,,,,,,,,,,,,,,,,,,,,,,,,,,,,,,,,,,,,,,666,001,,2024-04-23_14h20.07.574,Motor Imagery,2024.1.1,None,2024-04-23 14h20.24.052085 +0100,
Imagens/left.png,Imagens/down.png,"Vais imaginar o movimento de fechar e abrir o punho direito ou esquerdo, mediante te apareça as setas "Direita" ou "Esquerda". Pressione a barra do ESPAÇO para começar.","Vais imaginar o movimento de fechar e abrir ambos os punhos ou os pés, mediante te apareçam "Para cima" ou "Para baixo", respetivamente.  Pressione a barra do ESPAÇO para começar.",1,0,1,0,,,,,,,,,0,1,1,1,0,0,0,1,531.5688999999998,,,,,,,,,,,,,,,530.5397527999999,530.5514272,531.5688999999998,531.5364501999998,531.5578652999998,531.5688999999998,531.5688999999998,535.5512844,,,,,,,529.0037302000001,529.0483270999998,529.0483270999998,530.5386558,space,530.5317510999998,None,535.5513396000001,535.6202331,535.6202331,539.5509978999999,,,,666,001,,2024-04-23_14h20.07.574,Motor Imagery,2024.1.1,None,2024-04-23 14h20.24.052085 +0100,
Imagens/right.png,Imagens/up.png,"Vais fechar e abrir o punho direito ou esquerdo, mediante te apareça as setas "Direita" ou "Esquerda". Pressione a barra do ESPAÇO para começar.","Vais fechar e abrir ambos os punhos ou os pés, mediante te apareçam as setas "Para cima" ou "Para baixo", respetivamente. Pressione a barra do ESPAÇO para começar.",1,0,1,0,,,,,,,,,0,1,1,1,0,1,1,0,539.5668172999999,,,,,,,,,,,,,,,,,,,539.5521343999999,539.5668172999999,539.5668172999999,543.5501442999998,,,,,,,,,,,,,,543.5501977999998,543.7275027999999,543.7275027999999,547.5509139999999,,,,666,001,,2024-04-23_14h20.07.574,Motor Imagery,2024.1.1,None,2024-04-23 14h20.24.052085 +0100,
Imagens/right.png,Imagens/up.png,"Vais fechar e abrir o punho direito ou esquerdo, mediante te apareça as setas "Direita" ou "Esquerda". Pressione a barra do ESPAÇO para começar.","Vais fechar e abrir ambos os punhos ou os pés, mediante te apareçam as setas "Para cima" ou "Para baixo", respetivamente. Pressione a barra do ESPAÇO para começar.",1,0,1,0,,,,,,,,,0,1,1,1,1,0,2,0,547.5659228999998,,,,,,,,,,,,,,,,,,,547.5521159999998,547.5659228999998,547.5659228999998,551.5490768,,,,,,,,,,,,,,551.5491296,551.6823234999997,551.6823234999997,555.5498465999999,,,,666,001,,2024-04-23_14h20.07.574,Motor Imagery,2024.1.1,None,2024-04-23 14h20.24.052085 +0100,
Imagens/left.png,Imagens/down.png,"Vais imaginar o movimento de fechar e abrir o punho direito ou esquerdo, mediante te apareça as setas "Direita" ou "Esquerda". Pressione a barra do ESPAÇO para começar.","Vais imaginar o movimento de fechar e abrir ambos os punhos ou os pés, mediante te apareçam "Para cima" ou "Para baixo", respetivamente.  Pressione a barra do ESPAÇO para começar.",1,0,1,0,,,,,,,,,0,1,1,1,1,1,3,1,555.5650006000001,,,,,,,,,,,,,,,,,,,555.5509962000001,555.5650006000001,555.5650006000001,559.5481148999997,,,,,,,,,,,,,,559.5481682999998,559.6089928000001,559.6089928000001,563.5480142000001,,,,666,001,,2024-04-23_14h20.07.574,Motor Imagery,2024.1.1,None,2024-04-23 14h20.24.052085 +0100,
Imagens/left.png,Imagens/down.png,"Vais imaginar o movimento de fechar e abrir o punho direito ou esquerdo, mediante te apareça as setas "Direita" ou "Esquerda". Pressione a barra do ESPAÇO para começar.","Vais imaginar o movimento de fechar e abrir ambos os punhos ou os pés, mediante te apareçam "Para cima" ou "Para baixo", respetivamente.  Pressione a barra do ESPAÇO para começar.",1,0,1,0,,,,,,,,,0,1,1,1,2,0,4,1,563.5643123,,,,,,,,,,,,,,,,,,,563.5492312000001,563.5643123,563.5643123,567.5470688,,,,,,,,,,,,,,567.5471223999998,567.6089524999998,567.6089524999998,571.5465162,,,,666,001,,2024-04-23_14h20.07.574,Motor Imagery,2024.1.1,None,2024-04-23 14h20.24.052085 +0100,
Imagens/right.png,Imagens/up.png,"Vais fechar e abrir o punho direito ou esquerdo, mediante te apareça as setas "Direita" ou "Esquerda". Pressione a barra do ESPAÇO para começar.","Vais fechar e abrir ambos os punhos ou os pés, mediante te apareçam as setas "Para cima" ou "Para baixo", respetivamente. Pressione a barra do ESPAÇO para começar.",1,0,1,0,,,,,,,,,0,1,1,1,2,1,5,0,571.5625411000001,,,,,,,,,,,,,,,,,,,571.5470553999999,571.5625411000001,571.5625411000001,575.5460404,,,,,,,,,,,,,,575.5460927999998,575.7174213999997,575.7174213999997,579.5465719999997,,,,666,001,,2024-04-23_14h20.07.574,Motor Imagery,2024.1.1,None,2024-04-23 14h20.24.052085 +0100,
Imagens/right.png,Imagens/up.png,"Vais fechar e abrir o punho direito ou esquerdo, mediante te apareça as setas "Direita" ou "Esquerda". Pressione a barra do ESPAÇO para começar.","Vais fechar e abrir ambos os punhos ou os pés, mediante te apareçam as setas "Para cima" ou "Para baixo", respetivamente. Pressione a barra do ESPAÇO para começar.",1,0,1,0,,,,,,,,,0,1,1,1,3,0,6,0,579.5619800999998,,,,,,,,,,,,,,,,,,,579.5475609,579.5619800999998,579.5619800999998,583.5450210999998,,,,,,,,,,,,,,583.5450671999997,583.6641599,583.6641599,587.5456847999999,,,,666,001,,2024-04-23_14h20.07.574,Motor Imagery,2024.1.1,None,2024-04-23 14h20.24.052085 +0100,
Imagens/left.png,Imagens/down.png,"Vais imaginar o movimento de fechar e abrir o punho direito ou esquerdo, mediante te apareça as setas "Direita" ou "Esquerda". Pressione a barra do ESPAÇO para começar.","Vais imaginar o movimento de fechar e abrir ambos os punhos ou os pés, mediante te apareçam "Para cima" ou "Para baixo", respetivamente.  Pressione a barra do ESPAÇO para começar.",1,0,1,0,,,,,,,,,0,1,1,1,3,1,7,1,587.5607987999997,,,,,,,,,,,,,,,,,,,587.5469095999997,587.5607987999997,587.5607987999997,591.5436377999999,,,,,,,,,,,,,,591.5436629000001,591.5778826999999,591.5778826999999,595.5435838999997,,,,666,001,,2024-04-23_14h20.07.574,Motor Imagery,2024.1.1,None,2024-04-23 14h20.24.052085 +0100,
Imagens/left.png,Imagens/down.png,"Vais imaginar o movimento de fechar e abrir o punho direito ou esquerdo, mediante te apareça as setas "Direita" ou "Esquerda". Pressione a barra do ESPAÇO para começar.","Vais imaginar o movimento de fechar e abrir ambos os punhos ou os pés, mediante te apareçam "Para cima" ou "Para baixo", respetivamente.  Pressione a barra do ESPAÇO para começar.",1,0,1,0,,,,,,,,,0,1,1,1,,,,,,,,,,,,,,,,,,,,,,,,,,,,,,,,,,,,,,,,,,,,,,,,666,001,,2024-04-23_14h20.07.574,Motor Imagery,2024.1.1,None,2024-04-23 14h20.24.052085 +0100,
,,,,1,0,1,0,,,,,,,,,,,,,,,,,,,,,,,,,,,,,,,,,,,,,,,,,,,,,,,,,,,,,,,,,,,,666,001,,2024-04-23_14h20.07.574,Motor Imagery,2024.1.1,None,2024-04-23 14h20.24.052085 +0100,
,,,,,,,,,,,,,,,,,,,,,,,,,,,,,,,,,,,,,,,,,,,,,,,,,,,,,,,,,,,,,,,,595.5441184000001,595.5596197,600.5427019999997,666,001,,2024-04-23_14h20.07.574,Motor Imagery,2024.1.1,None,2024-04-23 14h20.24.052085 +0100,
