individual_punho,ambos_punhos_pes,instructions1,instructions2,trials.thisRepN,trials.thisTrialN,trials.thisN,trials.thisIndex,trials_3.thisRepN,trials_3.thisTrialN,trials_3.thisN,trials_3.thisIndex,imageryTrials.thisRepN,imageryTrials.thisTrialN,imageryTrials.thisN,imageryTrials.thisIndex,trials_4.thisRepN,trials_4.thisTrialN,trials_4.thisN,trials_4.thisIndex,imageryTrials2.thisRepN,imageryTrials2.thisTrialN,imageryTrials2.thisN,imageryTrials2.thisIndex,thisRow.t,notes,WelcomeScreen.started,textWelcomeMessage.started,textWelcomeMessage.stopped,WelcomeScreen.stopped,blank200.started,textBlank200.started,textBlank200.stopped,blank200.stopped,StartScreen.started,textOrientationMessage.started,keyWelcome.started,StartScreen.stopped,keyWelcome.keys,keyWelcome.rt,keyWelcome.duration,start.started,polygon_start.started,polygon_start.stopped,start.stopped,rest.started,textrest.started,polygon_rest.started,rest.stopped,task.started,polygonDE.started,image.started,task.stopped,textrest.stopped,polygon_rest.stopped,Start2Screen.started,textOrientationMessage2.started,keyOrientation2Message.started,Start2Screen.stopped,keyOrientation2Message.keys,keyOrientation2Message.rt,keyOrientation2Message.duration,task2.started,polygonPP.started,image_2.started,task2.stopped,GoodByeScreen.started,textGoodBuyMessage.started,GoodByeScreen.stopped,participant,session,name,date,expName,psychopyVersion,frameRate,expStart,
,,,,,,,,,,,,,,,,,,,,,,,,,,0.00417539999989458,0.009905699999762874,2.0135129000000234,1.9974867999999333,,,,,,,,,,,,,,,,,,,,,,,,,,,,,,,,,,,,,,,,777,001,,2024-04-23_09h47.00.612,Motor Imagery,2024.1.1,None,2024-04-23 09h47.13.360314 +0100,
,,,,,,,,,,,,,,,,,,,,,,,,,,,,,,1.9975272000001496,2.0135129000000234,2.2480270999999448,2.1975416999998743,,,,,,,,,,,,,,,,,,,,,,,,,,,,,,,,,,,,777,001,,2024-04-23_09h47.00.612,Motor Imagery,2024.1.1,None,2024-04-23 09h47.13.360314 +0100,
Imagens/left.png,Imagens/down.png,"Vais imaginar o movimento de fechar e abrir o punho direito ou esquerdo, mediante te apareça as setas "Direita" ou "Esquerda". Pressione a barra do ESPAÇO para começar.","Vais imaginar o movimento de fechar e abrir ambos os punhos ou os pés, mediante te apareçam "Para cima" ou "Para baixo", respetivamente.  Pressione a barra do ESPAÇO para começar.",0,0,0,0,0,0,0,0,0,0,0,1,,,,,,,,,12.147059500000069,,,,,,,,,,2.212405100000069,2.2480270999999448,2.2480270999999448,11.133136500000091,space,11.122422899999947,None,11.13360909999983,11.145393199999944,12.147059500000069,12.12982809999994,12.14001849999977,12.147059500000069,12.147059500000069,16.14519969999992,16.145224399999734,16.34133380000003,16.34133380000003,20.145704999999907,,,,,,,,,,,,,,,,,777,001,,2024-04-23_09h47.00.612,Motor Imagery,2024.1.1,None,2024-04-23 09h47.13.360314 +0100,
Imagens/right.png,Imagens/up.png,"Vais fechar e abrir o punho direito ou esquerdo, mediante te apareça as setas "Direita" ou "Esquerda". Pressione a barra do ESPAÇO para começar.","Vais fechar e abrir ambos os punhos ou os pés, mediante te apareçam as setas "Para cima" ou "Para baixo", respetivamente. Pressione a barra do ESPAÇO para começar.",0,0,0,0,0,0,0,0,0,1,1,0,,,,,,,,,20.160953000000063,,,,,,,,,,,,,,,,,,,,,20.14603709999983,20.160953000000063,20.160953000000063,24.144175299999915,24.144202399999813,24.248128799999904,24.248128799999904,28.14385369999991,,,,,,,,,,,,,,,,,777,001,,2024-04-23_09h47.00.612,Motor Imagery,2024.1.1,None,2024-04-23 09h47.13.360314 +0100,
Imagens/left.png,Imagens/down.png,"Vais imaginar o movimento de fechar e abrir o punho direito ou esquerdo, mediante te apareça as setas "Direita" ou "Esquerda". Pressione a barra do ESPAÇO para começar.","Vais imaginar o movimento de fechar e abrir ambos os punhos ou os pés, mediante te apareçam "Para cima" ou "Para baixo", respetivamente.  Pressione a barra do ESPAÇO para começar.",0,0,0,0,0,0,0,0,1,0,2,1,,,,,,,,,28.159976200000074,,,,,,,,,,,,,,,,,,,,,28.1443890999999,28.159976200000074,28.159976200000074,32.14314609999974,32.14318419999972,32.39740630000006,32.39740630000006,36.14317750000009,,,,,,,,,,,,,,,,,777,001,,2024-04-23_09h47.00.612,Motor Imagery,2024.1.1,None,2024-04-23 09h47.13.360314 +0100,
Imagens/right.png,Imagens/up.png,"Vais fechar e abrir o punho direito ou esquerdo, mediante te apareça as setas "Direita" ou "Esquerda". Pressione a barra do ESPAÇO para começar.","Vais fechar e abrir ambos os punhos ou os pés, mediante te apareçam as setas "Para cima" ou "Para baixo", respetivamente. Pressione a barra do ESPAÇO para começar.",0,0,0,0,0,0,0,0,1,1,3,0,,,,,,,,,36.15897619999987,,,,,,,,,,,,,,,,,,,,,36.14349579999998,36.15897619999987,36.15897619999987,40.142140500000096,40.14216579999993,40.17466370000011,40.17466370000011,44.14182179999989,,,,,,,,,,,,,,,,,777,001,,2024-04-23_09h47.00.612,Motor Imagery,2024.1.1,None,2024-04-23 09h47.13.360314 +0100,
Imagens/right.png,Imagens/up.png,"Vais fechar e abrir o punho direito ou esquerdo, mediante te apareça as setas "Direita" ou "Esquerda". Pressione a barra do ESPAÇO para começar.","Vais fechar e abrir ambos os punhos ou os pés, mediante te apareçam as setas "Para cima" ou "Para baixo", respetivamente. Pressione a barra do ESPAÇO para começar.",0,0,0,0,0,0,0,0,2,0,4,0,,,,,,,,,44.15808449999986,,,,,,,,,,,,,,,,,,,,,44.142171399999825,44.15808449999986,44.15808449999986,48.14107890000014,48.141104899999846,48.191598299999896,48.191598299999896,52.14097339999989,,,,,,,,,,,,,,,,,777,001,,2024-04-23_09h47.00.612,Motor Imagery,2024.1.1,None,2024-04-23 09h47.13.360314 +0100,
Imagens/left.png,Imagens/down.png,"Vais imaginar o movimento de fechar e abrir o punho direito ou esquerdo, mediante te apareça as setas "Direita" ou "Esquerda". Pressione a barra do ESPAÇO para começar.","Vais imaginar o movimento de fechar e abrir ambos os punhos ou os pés, mediante te apareçam "Para cima" ou "Para baixo", respetivamente.  Pressione a barra do ESPAÇO para começar.",0,0,0,0,0,0,0,0,2,1,5,1,,,,,,,,,52.1570686,,,,,,,,,,,,,,,,,,,,,52.14159329999984,52.1570686,52.1570686,56.13996339999994,56.139978300000166,56.33632609999995,56.33632609999995,60.140757199999825,,,,,,,,,,,,,,,,,777,001,,2024-04-23_09h47.00.612,Motor Imagery,2024.1.1,None,2024-04-23 09h47.13.360314 +0100,
Imagens/right.png,Imagens/up.png,"Vais fechar e abrir o punho direito ou esquerdo, mediante te apareça as setas "Direita" ou "Esquerda". Pressione a barra do ESPAÇO para começar.","Vais fechar e abrir ambos os punhos ou os pés, mediante te apareçam as setas "Para cima" ou "Para baixo", respetivamente. Pressione a barra do ESPAÇO para começar.",0,0,0,0,0,0,0,0,3,0,6,0,,,,,,,,,60.156007300000056,,,,,,,,,,,,,,,,,,,,,60.14139130000012,60.156007300000056,60.156007300000056,64.13879730000008,64.13881179999998,64.16095880000012,64.16095880000012,68.13889410000002,,,,,,,,,,,,,,,,,777,001,,2024-04-23_09h47.00.612,Motor Imagery,2024.1.1,None,2024-04-23 09h47.13.360314 +0100,
Imagens/left.png,Imagens/down.png,"Vais imaginar o movimento de fechar e abrir o punho direito ou esquerdo, mediante te apareça as setas "Direita" ou "Esquerda". Pressione a barra do ESPAÇO para começar.","Vais imaginar o movimento de fechar e abrir ambos os punhos ou os pés, mediante te apareçam "Para cima" ou "Para baixo", respetivamente.  Pressione a barra do ESPAÇO para começar.",0,0,0,0,0,0,0,0,3,1,7,1,,,,,,,,,68.15495710000005,,,,,,,,,,,,,,,,,,,,,68.13947319999988,68.15495710000005,68.15495710000005,72.13791230000015,72.13792779999994,72.30556500000012,72.30556500000012,76.13861510000015,,,,,,,,,,,,,,,,,777,001,,2024-04-23_09h47.00.612,Motor Imagery,2024.1.1,None,2024-04-23 09h47.13.360314 +0100,
Imagens/right.png,Imagens/up.png,"Vais fechar e abrir o punho direito ou esquerdo, mediante te apareça as setas "Direita" ou "Esquerda". Pressione a barra do ESPAÇO para começar.","Vais fechar e abrir ambos os punhos ou os pés, mediante te apareçam as setas "Para cima" ou "Para baixo", respetivamente. Pressione a barra do ESPAÇO para começar.",0,0,0,0,0,0,0,0,,,,,,,,,,,,,,,,,,,,,,,,,,,,,,,,,,,,,,,,,,,,,,,,,,,,,,,,,,777,001,,2024-04-23_09h47.00.612,Motor Imagery,2024.1.1,None,2024-04-23 09h47.13.360314 +0100,
Imagens/right.png,Imagens/up.png,"Vais fechar e abrir o punho direito ou esquerdo, mediante te apareça as setas "Direita" ou "Esquerda". Pressione a barra do ESPAÇO para começar.","Vais fechar e abrir ambos os punhos ou os pés, mediante te apareçam as setas "Para cima" ou "Para baixo", respetivamente. Pressione a barra do ESPAÇO para começar.",0,0,0,0,0,1,1,1,0,0,0,0,,,,,,,,,81.97029539999994,,,,,,,,,,76.13925519999975,76.17594879999979,76.17594879999979,80.95536949999996,space,80.95173859999977,None,80.95588120000002,80.97032869999975,81.97029539999994,81.95419459999994,81.96406290000004,81.97029539999994,81.97029539999994,85.95375349999995,85.95378100000016,85.98812270000008,85.98812270000008,89.96967600000016,85.98812270000008,85.98812270000008,,,,,,,,,,,,,,,777,001,,2024-04-23_09h47.00.612,Motor Imagery,2024.1.1,None,2024-04-23 09h47.13.360314 +0100,
Imagens/left.png,Imagens/down.png,"Vais imaginar o movimento de fechar e abrir o punho direito ou esquerdo, mediante te apareça as setas "Direita" ou "Esquerda". Pressione a barra do ESPAÇO para começar.","Vais imaginar o movimento de fechar e abrir ambos os punhos ou os pés, mediante te apareçam "Para cima" ou "Para baixo", respetivamente.  Pressione a barra do ESPAÇO para começar.",0,0,0,0,0,1,1,1,0,1,1,1,,,,,,,,,89.98573840000017,,,,,,,,,,,,,,,,,,,,,89.97022169999991,89.98573840000017,89.98573840000017,93.96875850000015,93.96878349999997,94.16933440000003,94.16933440000003,97.96942669999999,,,,,,,,,,,,,,,,,777,001,,2024-04-23_09h47.00.612,Motor Imagery,2024.1.1,None,2024-04-23 09h47.13.360314 +0100,
Imagens/left.png,Imagens/down.png,"Vais imaginar o movimento de fechar e abrir o punho direito ou esquerdo, mediante te apareça as setas "Direita" ou "Esquerda". Pressione a barra do ESPAÇO para começar.","Vais imaginar o movimento de fechar e abrir ambos os punhos ou os pés, mediante te apareçam "Para cima" ou "Para baixo", respetivamente.  Pressione a barra do ESPAÇO para começar.",0,0,0,0,0,1,1,1,1,0,2,1,,,,,,,,,97.98478879999993,,,,,,,,,,,,,,,,,,,,,97.9699786000001,97.98478879999993,97.98478879999993,101.96789149999995,101.96791609999991,102.10948980000012,102.10948980000012,105.96818050000002,,,,,,,,,,,,,,,,,777,001,,2024-04-23_09h47.00.612,Motor Imagery,2024.1.1,None,2024-04-23 09h47.13.360314 +0100,
Imagens/right.png,Imagens/up.png,"Vais fechar e abrir o punho direito ou esquerdo, mediante te apareça as setas "Direita" ou "Esquerda". Pressione a barra do ESPAÇO para começar.","Vais fechar e abrir ambos os punhos ou os pés, mediante te apareçam as setas "Para cima" ou "Para baixo", respetivamente. Pressione a barra do ESPAÇO para começar.",0,0,0,0,0,1,1,1,1,1,3,0,,,,,,,,,105.98369709999997,,,,,,,,,,,,,,,,,,,,,105.96873929999992,105.98369709999997,105.98369709999997,109.96672119999994,109.96674619999976,109.99743940000008,109.99743940000008,113.96619239999973,,,,,,,,,,,,,,,,,777,001,,2024-04-23_09h47.00.612,Motor Imagery,2024.1.1,None,2024-04-23 09h47.13.360314 +0100,
Imagens/right.png,Imagens/up.png,"Vais fechar e abrir o punho direito ou esquerdo, mediante te apareça as setas "Direita" ou "Esquerda". Pressione a barra do ESPAÇO para começar.","Vais fechar e abrir ambos os punhos ou os pés, mediante te apareçam as setas "Para cima" ou "Para baixo", respetivamente. Pressione a barra do ESPAÇO para começar.",0,0,0,0,0,1,1,1,2,0,4,0,,,,,,,,,113.98239590000003,,,,,,,,,,,,,,,,,,,,,113.96657330000016,113.98239590000003,113.98239590000003,117.9656344,117.96565779999992,117.99597619999986,117.99597619999986,121.96541669999988,,,,,,,,,,,,,,,,,777,001,,2024-04-23_09h47.00.612,Motor Imagery,2024.1.1,None,2024-04-23 09h47.13.360314 +0100,
Imagens/left.png,Imagens/down.png,"Vais imaginar o movimento de fechar e abrir o punho direito ou esquerdo, mediante te apareça as setas "Direita" ou "Esquerda". Pressione a barra do ESPAÇO para começar.","Vais imaginar o movimento de fechar e abrir ambos os punhos ou os pés, mediante te apareçam "Para cima" ou "Para baixo", respetivamente.  Pressione a barra do ESPAÇO para começar.",0,0,0,0,0,1,1,1,2,1,5,1,,,,,,,,,121.98178629999984,,,,,,,,,,,,,,,,,,,,,121.9659244999998,121.98178629999984,121.98178629999984,125.96481919999997,125.96484349999992,126.13114709999991,126.13114709999991,129.96515199999976,,,,,,,,,,,,,,,,,777,001,,2024-04-23_09h47.00.612,Motor Imagery,2024.1.1,None,2024-04-23 09h47.13.360314 +0100,
Imagens/left.png,Imagens/down.png,"Vais imaginar o movimento de fechar e abrir o punho direito ou esquerdo, mediante te apareça as setas "Direita" ou "Esquerda". Pressione a barra do ESPAÇO para começar.","Vais imaginar o movimento de fechar e abrir ambos os punhos ou os pés, mediante te apareçam "Para cima" ou "Para baixo", respetivamente.  Pressione a barra do ESPAÇO para começar.",0,0,0,0,0,1,1,1,3,0,6,1,,,,,,,,,129.9807323,,,,,,,,,,,,,,,,,,,,,129.9656599,129.9807323,129.9807323,133.96376520000013,133.96379100000013,134.12076810000008,134.12076810000008,137.96421199999986,,,,,,,,,,,,,,,,,777,001,,2024-04-23_09h47.00.612,Motor Imagery,2024.1.1,None,2024-04-23 09h47.13.360314 +0100,
Imagens/right.png,Imagens/up.png,"Vais fechar e abrir o punho direito ou esquerdo, mediante te apareça as setas "Direita" ou "Esquerda". Pressione a barra do ESPAÇO para começar.","Vais fechar e abrir ambos os punhos ou os pés, mediante te apareçam as setas "Para cima" ou "Para baixo", respetivamente. Pressione a barra do ESPAÇO para começar.",0,0,0,0,0,1,1,1,3,1,7,0,,,,,,,,,137.97961940000005,,,,,,,,,,,,,,,,,,,,,137.9647187999999,137.97961940000005,137.97961940000005,141.9625243999999,141.96254820000013,141.99319130000003,141.99319130000003,145.9625947999998,,,,,,,,,,,,,,,,,777,001,,2024-04-23_09h47.00.612,Motor Imagery,2024.1.1,None,2024-04-23 09h47.13.360314 +0100,
Imagens/left.png,Imagens/down.png,"Vais imaginar o movimento de fechar e abrir o punho direito ou esquerdo, mediante te apareça as setas "Direita" ou "Esquerda". Pressione a barra do ESPAÇO para começar.","Vais imaginar o movimento de fechar e abrir ambos os punhos ou os pés, mediante te apareçam "Para cima" ou "Para baixo", respetivamente.  Pressione a barra do ESPAÇO para começar.",0,0,0,0,0,1,1,1,,,,,,,,,,,,,,,,,,,,,,,,,,,,,,,,,,,,,,,,,,,,,,,,,,,,,,,,,,777,001,,2024-04-23_09h47.00.612,Motor Imagery,2024.1.1,None,2024-04-23 09h47.13.360314 +0100,
Imagens/left.png,Imagens/down.png,"Vais imaginar o movimento de fechar e abrir o punho direito ou esquerdo, mediante te apareça as setas "Direita" ou "Esquerda". Pressione a barra do ESPAÇO para começar.","Vais imaginar o movimento de fechar e abrir ambos os punhos ou os pés, mediante te apareçam "Para cima" ou "Para baixo", respetivamente.  Pressione a barra do ESPAÇO para começar.",0,0,0,0,,,,,,,,,0,0,0,0,0,0,0,1,154.0273827000001,,,,,,,,,,,,,,,,,153.01331679999976,153.02787720000015,154.0273827000001,154.01145399999996,154.02102269999978,154.0273827000001,154.0273827000001,158.01144440000007,,,,,158.06833800000004,158.06833800000004,145.97230219999983,145.99808299999995,145.99808299999995,153.01258860000007,space,152.99933499999997,None,158.01147219999984,158.06833800000004,158.06833800000004,162.02697669999998,,,,777,001,,2024-04-23_09h47.00.612,Motor Imagery,2024.1.1,None,2024-04-23 09h47.13.360314 +0100,
Imagens/right.png,Imagens/up.png,"Vais fechar e abrir o punho direito ou esquerdo, mediante te apareça as setas "Direita" ou "Esquerda". Pressione a barra do ESPAÇO para começar.","Vais fechar e abrir ambos os punhos ou os pés, mediante te apareçam as setas "Para cima" ou "Para baixo", respetivamente. Pressione a barra do ESPAÇO para começar.",0,0,0,0,,,,,,,,,0,0,0,0,0,1,1,0,162.04318000000012,,,,,,,,,,,,,,,,,,,,,162.02754319999985,162.04318000000012,162.04318000000012,166.02629290000004,,,,,,,,,,,,,,166.0263172,166.17078649999985,166.17078649999985,170.02695029999995,,,,777,001,,2024-04-23_09h47.00.612,Motor Imagery,2024.1.1,None,2024-04-23 09h47.13.360314 +0100,
Imagens/right.png,Imagens/up.png,"Vais fechar e abrir o punho direito ou esquerdo, mediante te apareça as setas "Direita" ou "Esquerda". Pressione a barra do ESPAÇO para começar.","Vais fechar e abrir ambos os punhos ou os pés, mediante te apareçam as setas "Para cima" ou "Para baixo", respetivamente. Pressione a barra do ESPAÇO para começar.",0,0,0,0,,,,,,,,,0,0,0,0,1,0,2,0,170.04205580000007,,,,,,,,,,,,,,,,,,,,,170.0274786,170.04205580000007,170.04205580000007,174.02533809999977,,,,,,,,,,,,,,174.0253628999999,174.11915670000008,174.11915670000008,178.02599469999996,,,,777,001,,2024-04-23_09h47.00.612,Motor Imagery,2024.1.1,None,2024-04-23 09h47.13.360314 +0100,
Imagens/left.png,Imagens/down.png,"Vais imaginar o movimento de fechar e abrir o punho direito ou esquerdo, mediante te apareça as setas "Direita" ou "Esquerda". Pressione a barra do ESPAÇO para começar.","Vais imaginar o movimento de fechar e abrir ambos os punhos ou os pés, mediante te apareçam "Para cima" ou "Para baixo", respetivamente.  Pressione a barra do ESPAÇO para começar.",0,0,0,0,,,,,,,,,0,0,0,0,1,1,3,1,178.0411350999998,,,,,,,,,,,,,,,,,,,,,178.02650559999984,178.0411350999998,178.0411350999998,182.02407270000003,,,,,,,,,,,,,,182.02409799999987,182.1058312,182.1058312,186.0241689999998,,,,777,001,,2024-04-23_09h47.00.612,Motor Imagery,2024.1.1,None,2024-04-23 09h47.13.360314 +0100,
Imagens/right.png,Imagens/up.png,"Vais fechar e abrir o punho direito ou esquerdo, mediante te apareça as setas "Direita" ou "Esquerda". Pressione a barra do ESPAÇO para começar.","Vais fechar e abrir ambos os punhos ou os pés, mediante te apareçam as setas "Para cima" ou "Para baixo", respetivamente. Pressione a barra do ESPAÇO para começar.",0,0,0,0,,,,,,,,,0,0,0,0,2,0,4,0,186.04015619999973,,,,,,,,,,,,,,,,,,,,,186.02470349999976,186.04015619999973,186.04015619999973,190.02326240000002,,,,,,,,,,,,,,190.02328690000013,190.14040109999996,190.14040109999996,194.0235514000001,,,,777,001,,2024-04-23_09h47.00.612,Motor Imagery,2024.1.1,None,2024-04-23 09h47.13.360314 +0100,
Imagens/left.png,Imagens/down.png,"Vais imaginar o movimento de fechar e abrir o punho direito ou esquerdo, mediante te apareça as setas "Direita" ou "Esquerda". Pressione a barra do ESPAÇO para começar.","Vais imaginar o movimento de fechar e abrir ambos os punhos ou os pés, mediante te apareçam "Para cima" ou "Para baixo", respetivamente.  Pressione a barra do ESPAÇO para começar.",0,0,0,0,,,,,,,,,0,0,0,0,2,1,5,1,194.03914510000004,,,,,,,,,,,,,,,,,,,,,194.0240577999998,194.03914510000004,194.03914510000004,198.02207399999998,,,,,,,,,,,,,,198.02209889999995,198.05610789999992,198.05610789999992,202.0217631999999,,,,777,001,,2024-04-23_09h47.00.612,Motor Imagery,2024.1.1,None,2024-04-23 09h47.13.360314 +0100,
Imagens/left.png,Imagens/down.png,"Vais imaginar o movimento de fechar e abrir o punho direito ou esquerdo, mediante te apareça as setas "Direita" ou "Esquerda". Pressione a barra do ESPAÇO para começar.","Vais imaginar o movimento de fechar e abrir ambos os punhos ou os pés, mediante te apareçam "Para cima" ou "Para baixo", respetivamente.  Pressione a barra do ESPAÇO para começar.",0,0,0,0,,,,,,,,,0,0,0,0,3,0,6,1,202.03809760000013,,,,,,,,,,,,,,,,,,,,,202.0223347000001,202.03809760000013,202.03809760000013,206.02106219999996,,,,,,,,,,,,,,206.0210873000001,206.05685820000008,206.05685820000008,210.02105040000015,,,,777,001,,2024-04-23_09h47.00.612,Motor Imagery,2024.1.1,None,2024-04-23 09h47.13.360314 +0100,
Imagens/right.png,Imagens/up.png,"Vais fechar e abrir o punho direito ou esquerdo, mediante te apareça as setas "Direita" ou "Esquerda". Pressione a barra do ESPAÇO para começar.","Vais fechar e abrir ambos os punhos ou os pés, mediante te apareçam as setas "Para cima" ou "Para baixo", respetivamente. Pressione a barra do ESPAÇO para começar.",0,0,0,0,,,,,,,,,0,0,0,0,3,1,7,0,210.0370036999998,,,,,,,,,,,,,,,,,,,,,210.02159570000003,210.0370036999998,210.0370036999998,214.0201320000001,,,,,,,,,,,,,,214.02015690000007,214.15065090000007,214.15065090000007,218.02047989999983,,,,777,001,,2024-04-23_09h47.00.612,Motor Imagery,2024.1.1,None,2024-04-23 09h47.13.360314 +0100,
Imagens/right.png,Imagens/up.png,"Vais fechar e abrir o punho direito ou esquerdo, mediante te apareça as setas "Direita" ou "Esquerda". Pressione a barra do ESPAÇO para começar.","Vais fechar e abrir ambos os punhos ou os pés, mediante te apareçam as setas "Para cima" ou "Para baixo", respetivamente. Pressione a barra do ESPAÇO para começar.",0,0,0,0,,,,,,,,,0,0,0,0,,,,,,,,,,,,,,,,,,,,,,,,,,,,,,,,,,,,,,,,,,,,,,,,,,777,001,,2024-04-23_09h47.00.612,Motor Imagery,2024.1.1,None,2024-04-23 09h47.13.360314 +0100,
Imagens/left.png,Imagens/down.png,"Vais imaginar o movimento de fechar e abrir o punho direito ou esquerdo, mediante te apareça as setas "Direita" ou "Esquerda". Pressione a barra do ESPAÇO para começar.","Vais imaginar o movimento de fechar e abrir ambos os punhos ou os pés, mediante te apareçam "Para cima" ou "Para baixo", respetivamente.  Pressione a barra do ESPAÇO para começar.",0,0,0,0,,,,,,,,,0,1,1,1,0,0,0,1,236.13379189999978,,,,,,,,,,,,,,,,,235.11955769999986,235.13378090000015,236.13379189999978,236.1179373,236.12758059999987,236.13379189999978,236.13379189999978,240.1175758999998,,,,,240.15663050000012,240.15663050000012,218.02107709999973,218.0448397,218.0448397,235.11904349999986,space,235.10213299999987,None,240.11760389999972,240.15663050000012,240.15663050000012,244.1332695000001,,,,777,001,,2024-04-23_09h47.00.612,Motor Imagery,2024.1.1,None,2024-04-23 09h47.13.360314 +0100,
Imagens/right.png,Imagens/up.png,"Vais fechar e abrir o punho direito ou esquerdo, mediante te apareça as setas "Direita" ou "Esquerda". Pressione a barra do ESPAÇO para começar.","Vais fechar e abrir ambos os punhos ou os pés, mediante te apareçam as setas "Para cima" ou "Para baixo", respetivamente. Pressione a barra do ESPAÇO para começar.",0,0,0,0,,,,,,,,,0,1,1,1,0,1,1,0,244.1494333999999,,,,,,,,,,,,,,,,,,,,,244.13381660000005,244.1494333999999,244.1494333999999,248.13237029999982,,,,,,,,,,,,,,248.13239489999978,248.2545009999999,248.2545009999999,252.13268199999993,,,,777,001,,2024-04-23_09h47.00.612,Motor Imagery,2024.1.1,None,2024-04-23 09h47.13.360314 +0100,
Imagens/right.png,Imagens/up.png,"Vais fechar e abrir o punho direito ou esquerdo, mediante te apareça as setas "Direita" ou "Esquerda". Pressione a barra do ESPAÇO para começar.","Vais fechar e abrir ambos os punhos ou os pés, mediante te apareçam as setas "Para cima" ou "Para baixo", respetivamente. Pressione a barra do ESPAÇO para começar.",0,0,0,0,,,,,,,,,0,1,1,1,1,0,2,0,252.14849939999976,,,,,,,,,,,,,,,,,,,,,252.13321899999983,252.14849939999976,252.14849939999976,256.13132889999997,,,,,,,,,,,,,,256.1313546000001,256.22358129999975,256.22358129999975,260.13190669999994,,,,777,001,,2024-04-23_09h47.00.612,Motor Imagery,2024.1.1,None,2024-04-23 09h47.13.360314 +0100,
Imagens/left.png,Imagens/down.png,"Vais imaginar o movimento de fechar e abrir o punho direito ou esquerdo, mediante te apareça as setas "Direita" ou "Esquerda". Pressione a barra do ESPAÇO para começar.","Vais imaginar o movimento de fechar e abrir ambos os punhos ou os pés, mediante te apareçam "Para cima" ou "Para baixo", respetivamente.  Pressione a barra do ESPAÇO para começar.",0,0,0,0,,,,,,,,,0,1,1,1,1,1,3,1,260.1474168,,,,,,,,,,,,,,,,,,,,,260.13242439999976,260.1474168,260.1474168,264.13038640000013,,,,,,,,,,,,,,264.1304116000001,264.1637627,264.1637627,268.13020789999973,,,,777,001,,2024-04-23_09h47.00.612,Motor Imagery,2024.1.1,None,2024-04-23 09h47.13.360314 +0100,
Imagens/left.png,Imagens/down.png,"Vais imaginar o movimento de fechar e abrir o punho direito ou esquerdo, mediante te apareça as setas "Direita" ou "Esquerda". Pressione a barra do ESPAÇO para começar.","Vais imaginar o movimento de fechar e abrir ambos os punhos ou os pés, mediante te apareçam "Para cima" ou "Para baixo", respetivamente.  Pressione a barra do ESPAÇO para começar.",0,0,0,0,,,,,,,,,0,1,1,1,2,0,4,1,268.1463512,,,,,,,,,,,,,,,,,,,,,268.1307418000001,268.1463512,268.1463512,272.1292373000001,,,,,,,,,,,,,,272.12926119999975,272.1674917999999,272.1674917999999,276.1292837000001,,,,777,001,,2024-04-23_09h47.00.612,Motor Imagery,2024.1.1,None,2024-04-23 09h47.13.360314 +0100,
Imagens/right.png,Imagens/up.png,"Vais fechar e abrir o punho direito ou esquerdo, mediante te apareça as setas "Direita" ou "Esquerda". Pressione a barra do ESPAÇO para começar.","Vais fechar e abrir ambos os punhos ou os pés, mediante te apareçam as setas "Para cima" ou "Para baixo", respetivamente. Pressione a barra do ESPAÇO para começar.",0,0,0,0,,,,,,,,,0,1,1,1,2,1,5,0,276.14519169999994,,,,,,,,,,,,,,,,,,,,,276.1298397999999,276.14519169999994,276.14519169999994,280.1282817000001,,,,,,,,,,,,,,280.1283057999999,280.30993390000003,280.30993390000003,284.1287063999998,,,,777,001,,2024-04-23_09h47.00.612,Motor Imagery,2024.1.1,None,2024-04-23 09h47.13.360314 +0100,
Imagens/left.png,Imagens/down.png,"Vais imaginar o movimento de fechar e abrir o punho direito ou esquerdo, mediante te apareça as setas "Direita" ou "Esquerda". Pressione a barra do ESPAÇO para começar.","Vais imaginar o movimento de fechar e abrir ambos os punhos ou os pés, mediante te apareçam "Para cima" ou "Para baixo", respetivamente.  Pressione a barra do ESPAÇO para começar.",0,0,0,0,,,,,,,,,0,1,1,1,3,0,6,1,284.14426790000016,,,,,,,,,,,,,,,,,,,,,284.1292413000001,284.14426790000016,284.14426790000016,288.12747709999985,,,,,,,,,,,,,,288.1275012000001,288.16182849999996,288.16182849999996,292.12695870000016,,,,777,001,,2024-04-23_09h47.00.612,Motor Imagery,2024.1.1,None,2024-04-23 09h47.13.360314 +0100,
Imagens/right.png,Imagens/up.png,"Vais fechar e abrir o punho direito ou esquerdo, mediante te apareça as setas "Direita" ou "Esquerda". Pressione a barra do ESPAÇO para começar.","Vais fechar e abrir ambos os punhos ou os pés, mediante te apareçam as setas "Para cima" ou "Para baixo", respetivamente. Pressione a barra do ESPAÇO para começar.",0,0,0,0,,,,,,,,,0,1,1,1,3,1,7,0,292.14329510000016,,,,,,,,,,,,,,,,,,,,,292.12753829999974,292.14329510000016,292.14329510000016,296.12637619999987,,,,,,,,,,,,,,296.1264004999998,296.2515628000001,296.2515628000001,300.12704889999986,,,,777,001,,2024-04-23_09h47.00.612,Motor Imagery,2024.1.1,None,2024-04-23 09h47.13.360314 +0100,
Imagens/left.png,Imagens/down.png,"Vais imaginar o movimento de fechar e abrir o punho direito ou esquerdo, mediante te apareça as setas "Direita" ou "Esquerda". Pressione a barra do ESPAÇO para começar.","Vais imaginar o movimento de fechar e abrir ambos os punhos ou os pés, mediante te apareçam "Para cima" ou "Para baixo", respetivamente.  Pressione a barra do ESPAÇO para começar.",0,0,0,0,,,,,,,,,0,1,1,1,,,,,,,,,,,,,,,,,,,,,,,,,,,,,,,,,,,,,,,,,,,,,,,,,,777,001,,2024-04-23_09h47.00.612,Motor Imagery,2024.1.1,None,2024-04-23 09h47.13.360314 +0100,
,,,,0,0,0,0,,,,,,,,,,,,,,,,,,,,,,,,,,,,,,,,,,,,,,,,,,,,,,,,,,,,,,,,,,,,,,777,001,,2024-04-23_09h47.00.612,Motor Imagery,2024.1.1,None,2024-04-23 09h47.13.360314 +0100,
Imagens/right.png,Imagens/up.png,"Vais fechar e abrir o punho direito ou esquerdo, mediante te apareça as setas "Direita" ou "Esquerda". Pressione a barra do ESPAÇO para começar.","Vais fechar e abrir ambos os punhos ou os pés, mediante te apareçam as setas "Para cima" ou "Para baixo", respetivamente. Pressione a barra do ESPAÇO para começar.",1,0,1,0,0,0,0,0,0,0,0,0,,,,,,,,,313.0070867999998,,,,,,,,,,300.1367157999998,300.1564792999998,300.1564792999998,311.9930736000001,space,311.9910006,None,311.9938253999999,312.0074629999999,313.0070867999998,312.99122039999975,313.00045450000016,313.0070867999998,313.0070867999998,316.99102619999985,316.99105389999977,317.02170990000013,317.02170990000013,321.0068516000001,317.02170990000013,317.02170990000013,,,,,,,,,,,,,,,777,001,,2024-04-23_09h47.00.612,Motor Imagery,2024.1.1,None,2024-04-23 09h47.13.360314 +0100,
Imagens/left.png,Imagens/down.png,"Vais imaginar o movimento de fechar e abrir o punho direito ou esquerdo, mediante te apareça as setas "Direita" ou "Esquerda". Pressione a barra do ESPAÇO para começar.","Vais imaginar o movimento de fechar e abrir ambos os punhos ou os pés, mediante te apareçam "Para cima" ou "Para baixo", respetivamente.  Pressione a barra do ESPAÇO para começar.",1,0,1,0,0,0,0,0,0,1,1,1,,,,,,,,,321.0227310999999,,,,,,,,,,,,,,,,,,,,,321.00738939999974,321.0227310999999,321.0227310999999,325.00579229999994,325.0058135999998,325.19233889999987,325.19233889999987,329.00621360000014,,,,,,,,,,,,,,,,,777,001,,2024-04-23_09h47.00.612,Motor Imagery,2024.1.1,None,2024-04-23 09h47.13.360314 +0100,
Imagens/left.png,Imagens/down.png,"Vais imaginar o movimento de fechar e abrir o punho direito ou esquerdo, mediante te apareça as setas "Direita" ou "Esquerda". Pressione a barra do ESPAÇO para começar.","Vais imaginar o movimento de fechar e abrir ambos os punhos ou os pés, mediante te apareçam "Para cima" ou "Para baixo", respetivamente.  Pressione a barra do ESPAÇO para começar.",1,0,1,0,0,0,0,0,1,0,2,1,,,,,,,,,329.02145629999995,,,,,,,,,,,,,,,,,,,,,329.00658220000014,329.02145629999995,329.02145629999995,333.0051475,333.00517260000015,333.1744678,333.1744678,337.0051905999999,,,,,,,,,,,,,,,,,777,001,,2024-04-23_09h47.00.612,Motor Imagery,2024.1.1,None,2024-04-23 09h47.13.360314 +0100,
Imagens/right.png,Imagens/up.png,"Vais fechar e abrir o punho direito ou esquerdo, mediante te apareça as setas "Direita" ou "Esquerda". Pressione a barra do ESPAÇO para começar.","Vais fechar e abrir ambos os punhos ou os pés, mediante te apareçam as setas "Para cima" ou "Para baixo", respetivamente. Pressione a barra do ESPAÇO para começar.",1,0,1,0,0,0,0,0,1,1,3,0,,,,,,,,,337.02081099999987,,,,,,,,,,,,,,,,,,,,,337.0056424999998,337.02081099999987,337.02081099999987,341.0038678000001,341.0038912,341.03311010000016,341.03311010000016,345.0037794,,,,,,,,,,,,,,,,,777,001,,2024-04-23_09h47.00.612,Motor Imagery,2024.1.1,None,2024-04-23 09h47.13.360314 +0100,
Imagens/left.png,Imagens/down.png,"Vais imaginar o movimento de fechar e abrir o punho direito ou esquerdo, mediante te apareça as setas "Direita" ou "Esquerda". Pressione a barra do ESPAÇO para começar.","Vais imaginar o movimento de fechar e abrir ambos os punhos ou os pés, mediante te apareçam "Para cima" ou "Para baixo", respetivamente.  Pressione a barra do ESPAÇO para começar.",1,0,1,0,0,0,0,0,2,0,4,1,,,,,,,,,345.01992960000007,,,,,,,,,,,,,,,,,,,,,345.0043166999999,345.01992960000007,345.01992960000007,349.0030428,349.00306820000014,349.16019000000006,349.16019000000006,353.0033419000001,,,,,,,,,,,,,,,,,777,001,,2024-04-23_09h47.00.612,Motor Imagery,2024.1.1,None,2024-04-23 09h47.13.360314 +0100,
Imagens/right.png,Imagens/up.png,"Vais fechar e abrir o punho direito ou esquerdo, mediante te apareça as setas "Direita" ou "Esquerda". Pressione a barra do ESPAÇO para começar.","Vais fechar e abrir ambos os punhos ou os pés, mediante te apareçam as setas "Para cima" ou "Para baixo", respetivamente. Pressione a barra do ESPAÇO para começar.",1,0,1,0,0,0,0,0,2,1,5,0,,,,,,,,,353.01888370000006,,,,,,,,,,,,,,,,,,,,,353.0038980999998,353.01888370000006,353.01888370000006,357.0017810999998,357.00180649999993,357.03182119999974,357.03182119999974,361.00179979999984,,,,,,,,,,,,,,,,,777,001,,2024-04-23_09h47.00.612,Motor Imagery,2024.1.1,None,2024-04-23 09h47.13.360314 +0100,
Imagens/right.png,Imagens/up.png,"Vais fechar e abrir o punho direito ou esquerdo, mediante te apareça as setas "Direita" ou "Esquerda". Pressione a barra do ESPAÇO para começar.","Vais fechar e abrir ambos os punhos ou os pés, mediante te apareçam as setas "Para cima" ou "Para baixo", respetivamente. Pressione a barra do ESPAÇO para começar.",1,0,1,0,0,0,0,0,3,0,6,0,,,,,,,,,361.0178695999998,,,,,,,,,,,,,,,,,,,,,361.0023533999997,361.0178695999998,361.0178695999998,365.00079030000006,365.0008112999999,365.0249779999999,365.0249779999999,369.0007824999998,,,,,,,,,,,,,,,,,777,001,,2024-04-23_09h47.00.612,Motor Imagery,2024.1.1,None,2024-04-23 09h47.13.360314 +0100,
Imagens/left.png,Imagens/down.png,"Vais imaginar o movimento de fechar e abrir o punho direito ou esquerdo, mediante te apareça as setas "Direita" ou "Esquerda". Pressione a barra do ESPAÇO para começar.","Vais imaginar o movimento de fechar e abrir ambos os punhos ou os pés, mediante te apareçam "Para cima" ou "Para baixo", respetivamente.  Pressione a barra do ESPAÇO para começar.",1,0,1,0,0,0,0,0,3,1,7,1,,,,,,,,,369.0165742999998,,,,,,,,,,,,,,,,,,,,,369.0013020000001,369.0165742999998,369.0165742999998,372.9996928999999,372.99971849999974,373.20816590000004,373.20816590000004,377.0001778999999,,,,,,,,,,,,,,,,,777,001,,2024-04-23_09h47.00.612,Motor Imagery,2024.1.1,None,2024-04-23 09h47.13.360314 +0100,
Imagens/right.png,Imagens/up.png,"Vais fechar e abrir o punho direito ou esquerdo, mediante te apareça as setas "Direita" ou "Esquerda". Pressione a barra do ESPAÇO para começar.","Vais fechar e abrir ambos os punhos ou os pés, mediante te apareçam as setas "Para cima" ou "Para baixo", respetivamente. Pressione a barra do ESPAÇO para começar.",1,0,1,0,0,0,0,0,,,,,,,,,,,,,,,,,,,,,,,,,,,,,,,,,,,,,,,,,,,,,,,,,,,,,,,,,,777,001,,2024-04-23_09h47.00.612,Motor Imagery,2024.1.1,None,2024-04-23 09h47.13.360314 +0100,
Imagens/right.png,Imagens/up.png,"Vais fechar e abrir o punho direito ou esquerdo, mediante te apareça as setas "Direita" ou "Esquerda". Pressione a barra do ESPAÇO para começar.","Vais fechar e abrir ambos os punhos ou os pés, mediante te apareçam as setas "Para cima" ou "Para baixo", respetivamente. Pressione a barra do ESPAÇO para começar.",1,0,1,0,0,1,1,1,0,0,0,0,,,,,,,,,393.5136109,,,,,,,,,,377.00068629999987,377.01744169999984,377.01744169999984,392.49901420000015,space,392.4890382999997,None,392.4995242,392.51372249999986,393.5136109,393.4977834000001,393.5073766999999,393.5136109,393.5136109,397.49713459999975,397.49716209999997,397.5305521999999,397.5305521999999,401.51309189999984,397.5305521999999,397.5305521999999,,,,,,,,,,,,,,,777,001,,2024-04-23_09h47.00.612,Motor Imagery,2024.1.1,None,2024-04-23 09h47.13.360314 +0100,
Imagens/left.png,Imagens/down.png,"Vais imaginar o movimento de fechar e abrir o punho direito ou esquerdo, mediante te apareça as setas "Direita" ou "Esquerda". Pressione a barra do ESPAÇO para começar.","Vais imaginar o movimento de fechar e abrir ambos os punhos ou os pés, mediante te apareçam "Para cima" ou "Para baixo", respetivamente.  Pressione a barra do ESPAÇO para começar.",1,0,1,0,0,1,1,1,0,1,1,1,,,,,,,,,401.52925449999975,,,,,,,,,,,,,,,,,,,,,401.51363679999986,401.52925449999975,401.52925449999975,405.5122013,405.5122373999998,405.66414570000006,405.66414570000006,409.5125847999998,,,,,,,,,,,,,,,,,777,001,,2024-04-23_09h47.00.612,Motor Imagery,2024.1.1,None,2024-04-23 09h47.13.360314 +0100,
Imagens/left.png,Imagens/down.png,"Vais imaginar o movimento de fechar e abrir o punho direito ou esquerdo, mediante te apareça as setas "Direita" ou "Esquerda". Pressione a barra do ESPAÇO para começar.","Vais imaginar o movimento de fechar e abrir ambos os punhos ou os pés, mediante te apareçam "Para cima" ou "Para baixo", respetivamente.  Pressione a barra do ESPAÇO para começar.",1,0,1,0,0,1,1,1,1,0,2,1,,,,,,,,,409.5284354999999,,,,,,,,,,,,,,,,,,,,,409.5131299999998,409.5284354999999,409.5284354999999,413.51125920000004,413.51128400000016,413.64904279999973,413.64904279999973,417.5119458999998,,,,,,,,,,,,,,,,,777,001,,2024-04-23_09h47.00.612,Motor Imagery,2024.1.1,None,2024-04-23 09h47.13.360314 +0100,
Imagens/right.png,Imagens/up.png,"Vais fechar e abrir o punho direito ou esquerdo, mediante te apareça as setas "Direita" ou "Esquerda". Pressione a barra do ESPAÇO para começar.","Vais fechar e abrir ambos os punhos ou os pés, mediante te apareçam as setas "Para cima" ou "Para baixo", respetivamente. Pressione a barra do ESPAÇO para começar.",1,0,1,0,0,1,1,1,1,1,3,0,,,,,,,,,417.5272722999998,,,,,,,,,,,,,,,,,,,,,417.5125069999999,417.5272722999998,417.5272722999998,421.51017939999974,421.51022550000016,421.5410649999999,421.5410649999999,425.51026850000017,,,,,,,,,,,,,,,,,777,001,,2024-04-23_09h47.00.612,Motor Imagery,2024.1.1,None,2024-04-23 09h47.13.360314 +0100,
Imagens/left.png,Imagens/down.png,"Vais imaginar o movimento de fechar e abrir o punho direito ou esquerdo, mediante te apareça as setas "Direita" ou "Esquerda". Pressione a barra do ESPAÇO para começar.","Vais imaginar o movimento de fechar e abrir ambos os punhos ou os pés, mediante te apareçam "Para cima" ou "Para baixo", respetivamente.  Pressione a barra do ESPAÇO para começar.",1,0,1,0,0,1,1,1,2,0,4,1,,,,,,,,,425.52612569999974,,,,,,,,,,,,,,,,,,,,,425.5107767999998,425.52612569999974,425.52612569999974,429.5091185000001,429.50914269999976,429.65773439999975,429.65773439999975,433.50965570000017,,,,,,,,,,,,,,,,,777,001,,2024-04-23_09h47.00.612,Motor Imagery,2024.1.1,None,2024-04-23 09h47.13.360314 +0100,
Imagens/right.png,Imagens/up.png,"Vais fechar e abrir o punho direito ou esquerdo, mediante te apareça as setas "Direita" ou "Esquerda". Pressione a barra do ESPAÇO para começar.","Vais fechar e abrir ambos os punhos ou os pés, mediante te apareçam as setas "Para cima" ou "Para baixo", respetivamente. Pressione a barra do ESPAÇO para começar.",1,0,1,0,0,1,1,1,2,1,5,0,,,,,,,,,433.52509659999987,,,,,,,,,,,,,,,,,,,,,433.5102176999999,433.52509659999987,433.52509659999987,437.5080890999998,437.5081141999999,437.53744419999975,437.53744419999975,441.5081501999998,,,,,,,,,,,,,,,,,777,001,,2024-04-23_09h47.00.612,Motor Imagery,2024.1.1,None,2024-04-23 09h47.13.360314 +0100,
Imagens/left.png,Imagens/down.png,"Vais imaginar o movimento de fechar e abrir o punho direito ou esquerdo, mediante te apareça as setas "Direita" ou "Esquerda". Pressione a barra do ESPAÇO para começar.","Vais imaginar o movimento de fechar e abrir ambos os punhos ou os pés, mediante te apareçam "Para cima" ou "Para baixo", respetivamente.  Pressione a barra do ESPAÇO para começar.",1,0,1,0,0,1,1,1,3,0,6,1,,,,,,,,,441.5241443,,,,,,,,,,,,,,,,,,,,,441.50868089999994,441.5241443,441.5241443,445.5073944999999,445.50741879999987,445.6706157999997,445.6706157999997,449.50764690000005,,,,,,,,,,,,,,,,,777,001,,2024-04-23_09h47.00.612,Motor Imagery,2024.1.1,None,2024-04-23 09h47.13.360314 +0100,
Imagens/right.png,Imagens/up.png,"Vais fechar e abrir o punho direito ou esquerdo, mediante te apareça as setas "Direita" ou "Esquerda". Pressione a barra do ESPAÇO para começar.","Vais fechar e abrir ambos os punhos ou os pés, mediante te apareçam as setas "Para cima" ou "Para baixo", respetivamente. Pressione a barra do ESPAÇO para começar.",1,0,1,0,0,1,1,1,3,1,7,0,,,,,,,,,449.52325070000006,,,,,,,,,,,,,,,,,,,,,449.5081605999999,449.52325070000006,449.52325070000006,453.5062635999998,453.5062880999999,453.53689729999996,453.53689729999996,457.50606830000015,,,,,,,,,,,,,,,,,777,001,,2024-04-23_09h47.00.612,Motor Imagery,2024.1.1,None,2024-04-23 09h47.13.360314 +0100,
Imagens/left.png,Imagens/down.png,"Vais imaginar o movimento de fechar e abrir o punho direito ou esquerdo, mediante te apareça as setas "Direita" ou "Esquerda". Pressione a barra do ESPAÇO para começar.","Vais imaginar o movimento de fechar e abrir ambos os punhos ou os pés, mediante te apareçam "Para cima" ou "Para baixo", respetivamente.  Pressione a barra do ESPAÇO para começar.",1,0,1,0,0,1,1,1,,,,,,,,,,,,,,,,,,,,,,,,,,,,,,,,,,,,,,,,,,,,,,,,,,,,,,,,,,777,001,,2024-04-23_09h47.00.612,Motor Imagery,2024.1.1,None,2024-04-23 09h47.13.360314 +0100,
Imagens/right.png,Imagens/up.png,"Vais fechar e abrir o punho direito ou esquerdo, mediante te apareça as setas "Direita" ou "Esquerda". Pressione a barra do ESPAÇO para começar.","Vais fechar e abrir ambos os punhos ou os pés, mediante te apareçam as setas "Para cima" ou "Para baixo", respetivamente. Pressione a barra do ESPAÇO para começar.",1,0,1,0,,,,,,,,,0,0,0,0,0,0,0,0,490.7344033999998,,,,,,,,,,,,,,,,,489.7204948999997,489.73449170000004,490.7344033999998,490.7185663999999,490.7277657999998,490.7344033999998,490.7344033999998,494.7183506000001,,,,,494.82149230000005,494.82149230000005,457.51554739999983,457.53687249999984,457.53687249999984,489.71974580000006,space,489.7162748999999,None,494.7183778999997,494.82149230000005,494.82149230000005,498.7345086999999,,,,777,001,,2024-04-23_09h47.00.612,Motor Imagery,2024.1.1,None,2024-04-23 09h47.13.360314 +0100,
Imagens/left.png,Imagens/down.png,"Vais imaginar o movimento de fechar e abrir o punho direito ou esquerdo, mediante te apareça as setas "Direita" ou "Esquerda". Pressione a barra do ESPAÇO para começar.","Vais imaginar o movimento de fechar e abrir ambos os punhos ou os pés, mediante te apareçam "Para cima" ou "Para baixo", respetivamente.  Pressione a barra do ESPAÇO para começar.",1,0,1,0,,,,,,,,,0,0,0,0,0,1,1,1,498.7500832999999,,,,,,,,,,,,,,,,,,,,,498.7350452999999,498.7500832999999,498.7500832999999,502.7331528999998,,,,,,,,,,,,,,502.7331782000001,502.7670355,502.7670355,506.7329077999998,,,,777,001,,2024-04-23_09h47.00.612,Motor Imagery,2024.1.1,None,2024-04-23 09h47.13.360314 +0100,
Imagens/right.png,Imagens/up.png,"Vais fechar e abrir o punho direito ou esquerdo, mediante te apareça as setas "Direita" ou "Esquerda". Pressione a barra do ESPAÇO para começar.","Vais fechar e abrir ambos os punhos ou os pés, mediante te apareçam as setas "Para cima" ou "Para baixo", respetivamente. Pressione a barra do ESPAÇO para começar.",1,0,1,0,,,,,,,,,0,0,0,0,1,0,2,0,506.7492420999997,,,,,,,,,,,,,,,,,,,,,506.7334786000001,506.7492420999997,506.7492420999997,510.73218989999987,,,,,,,,,,,,,,510.73221490000014,510.8378260999998,510.8378260999998,514.7330444999998,,,,777,001,,2024-04-23_09h47.00.612,Motor Imagery,2024.1.1,None,2024-04-23 09h47.13.360314 +0100,
Imagens/left.png,Imagens/down.png,"Vais imaginar o movimento de fechar e abrir o punho direito ou esquerdo, mediante te apareça as setas "Direita" ou "Esquerda". Pressione a barra do ESPAÇO para começar.","Vais imaginar o movimento de fechar e abrir ambos os punhos ou os pés, mediante te apareçam "Para cima" ou "Para baixo", respetivamente.  Pressione a barra do ESPAÇO para começar.",1,0,1,0,,,,,,,,,0,0,0,0,1,1,3,1,514.7480480999998,,,,,,,,,,,,,,,,,,,,,514.733581,514.7480480999998,514.7480480999998,518.7311903,,,,,,,,,,,,,,518.7312142000001,518.7641837000001,518.7641837000001,522.7309387,,,,777,001,,2024-04-23_09h47.00.612,Motor Imagery,2024.1.1,None,2024-04-23 09h47.13.360314 +0100,
Imagens/right.png,Imagens/up.png,"Vais fechar e abrir o punho direito ou esquerdo, mediante te apareça as setas "Direita" ou "Esquerda". Pressione a barra do ESPAÇO para começar.","Vais fechar e abrir ambos os punhos ou os pés, mediante te apareçam as setas "Para cima" ou "Para baixo", respetivamente. Pressione a barra do ESPAÇO para começar.",1,0,1,0,,,,,,,,,0,0,0,0,2,0,4,0,522.7471852999997,,,,,,,,,,,,,,,,,,,,,522.7314824,522.7471852999997,522.7471852999997,526.7302524000002,,,,,,,,,,,,,,526.7302807000001,526.8448785,526.8448785,530.7305532,,,,777,001,,2024-04-23_09h47.00.612,Motor Imagery,2024.1.1,None,2024-04-23 09h47.13.360314 +0100,
Imagens/left.png,Imagens/down.png,"Vais imaginar o movimento de fechar e abrir o punho direito ou esquerdo, mediante te apareça as setas "Direita" ou "Esquerda". Pressione a barra do ESPAÇO para começar.","Vais imaginar o movimento de fechar e abrir ambos os punhos ou os pés, mediante te apareçam "Para cima" ou "Para baixo", respetivamente.  Pressione a barra do ESPAÇO para começar.",1,0,1,0,,,,,,,,,0,0,0,0,2,1,5,1,530.7460759999999,,,,,,,,,,,,,,,,,,,,,530.7310901999999,530.7460759999999,530.7460759999999,534.7293358000002,,,,,,,,,,,,,,534.7293613000002,534.7601678999999,534.7601678999999,538.7289884000002,,,,777,001,,2024-04-23_09h47.00.612,Motor Imagery,2024.1.1,None,2024-04-23 09h47.13.360314 +0100,
Imagens/right.png,Imagens/up.png,"Vais fechar e abrir o punho direito ou esquerdo, mediante te apareça as setas "Direita" ou "Esquerda". Pressione a barra do ESPAÇO para começar.","Vais fechar e abrir ambos os punhos ou os pés, mediante te apareçam as setas "Para cima" ou "Para baixo", respetivamente. Pressione a barra do ESPAÇO para começar.",1,0,1,0,,,,,,,,,0,0,0,0,3,0,6,0,538.7449873999999,,,,,,,,,,,,,,,,,,,,,538.7297045,538.7449873999999,538.7449873999999,542.7281448999997,,,,,,,,,,,,,,542.7281693,542.8502785999999,542.8502785999999,546.7281902,,,,777,001,,2024-04-23_09h47.00.612,Motor Imagery,2024.1.1,None,2024-04-23 09h47.13.360314 +0100,
Imagens/left.png,Imagens/down.png,"Vais imaginar o movimento de fechar e abrir o punho direito ou esquerdo, mediante te apareça as setas "Direita" ou "Esquerda". Pressione a barra do ESPAÇO para começar.","Vais imaginar o movimento de fechar e abrir ambos os punhos ou os pés, mediante te apareçam "Para cima" ou "Para baixo", respetivamente.  Pressione a barra do ESPAÇO para começar.",1,0,1,0,,,,,,,,,0,0,0,0,3,1,7,1,546.7438022000001,,,,,,,,,,,,,,,,,,,,,546.728544,546.7438022000001,546.7438022000001,550.7269172000001,,,,,,,,,,,,,,550.7269410999997,550.7616985999998,550.7616985999998,554.7270321999999,,,,777,001,,2024-04-23_09h47.00.612,Motor Imagery,2024.1.1,None,2024-04-23 09h47.13.360314 +0100,
Imagens/right.png,Imagens/up.png,"Vais fechar e abrir o punho direito ou esquerdo, mediante te apareça as setas "Direita" ou "Esquerda". Pressione a barra do ESPAÇO para começar.","Vais fechar e abrir ambos os punhos ou os pés, mediante te apareçam as setas "Para cima" ou "Para baixo", respetivamente. Pressione a barra do ESPAÇO para começar.",1,0,1,0,,,,,,,,,0,0,0,0,,,,,,,,,,,,,,,,,,,,,,,,,,,,,,,,,,,,,,,,,,,,,,,,,,777,001,,2024-04-23_09h47.00.612,Motor Imagery,2024.1.1,None,2024-04-23 09h47.13.360314 +0100,
Imagens/right.png,Imagens/up.png,"Vais fechar e abrir o punho direito ou esquerdo, mediante te apareça as setas "Direita" ou "Esquerda". Pressione a barra do ESPAÇO para começar.","Vais fechar e abrir ambos os punhos ou os pés, mediante te apareçam as setas "Para cima" ou "Para baixo", respetivamente. Pressione a barra do ESPAÇO para começar.",1,0,1,0,,,,,,,,,0,1,1,1,0,0,0,0,557.7092962000002,,,,,,,,,,,,,,,,,556.6950710000001,556.7093528999999,557.7092962000002,557.6932572999999,557.7022217999997,557.7092962000002,557.7092962000002,561.6929191999998,,,,,561.8296101999999,561.8296101999999,554.7276665999998,554.7508340999998,554.7508340999998,556.6945335,space,556.6898121999998,None,561.6929939000001,561.8296101999999,561.8296101999999,565.7096139999999,,,,777,001,,2024-04-23_09h47.00.612,Motor Imagery,2024.1.1,None,2024-04-23 09h47.13.360314 +0100,
Imagens/left.png,Imagens/down.png,"Vais imaginar o movimento de fechar e abrir o punho direito ou esquerdo, mediante te apareça as setas "Direita" ou "Esquerda". Pressione a barra do ESPAÇO para começar.","Vais imaginar o movimento de fechar e abrir ambos os punhos ou os pés, mediante te apareçam "Para cima" ou "Para baixo", respetivamente.  Pressione a barra do ESPAÇO para começar.",1,0,1,0,,,,,,,,,0,1,1,1,0,1,1,1,565.7251351999998,,,,,,,,,,,,,,,,,,,,,565.7101499999999,565.7251351999998,565.7251351999998,569.7078283999999,,,,,,,,,,,,,,569.7078533999997,569.7425159999998,569.7425159999998,573.7075286999998,,,,777,001,,2024-04-23_09h47.00.612,Motor Imagery,2024.1.1,None,2024-04-23 09h47.13.360314 +0100,
Imagens/left.png,Imagens/down.png,"Vais imaginar o movimento de fechar e abrir o punho direito ou esquerdo, mediante te apareça as setas "Direita" ou "Esquerda". Pressione a barra do ESPAÇO para começar.","Vais imaginar o movimento de fechar e abrir ambos os punhos ou os pés, mediante te apareçam "Para cima" ou "Para baixo", respetivamente.  Pressione a barra do ESPAÇO para começar.",1,0,1,0,,,,,,,,,0,1,1,1,1,0,2,1,573.7238437000001,,,,,,,,,,,,,,,,,,,,,573.708106,573.7238437000001,573.7238437000001,577.7067555999997,,,,,,,,,,,,,,577.7067806,577.738746,577.738746,581.7068582000002,,,,777,001,,2024-04-23_09h47.00.612,Motor Imagery,2024.1.1,None,2024-04-23 09h47.13.360314 +0100,
Imagens/right.png,Imagens/up.png,"Vais fechar e abrir o punho direito ou esquerdo, mediante te apareça as setas "Direita" ou "Esquerda". Pressione a barra do ESPAÇO para começar.","Vais fechar e abrir ambos os punhos ou os pés, mediante te apareçam as setas "Para cima" ou "Para baixo", respetivamente. Pressione a barra do ESPAÇO para começar.",1,0,1,0,,,,,,,,,0,1,1,1,1,1,3,0,581.7227856999998,,,,,,,,,,,,,,,,,,,,,581.7074042999998,581.7227856999998,581.7227856999998,585.7057445999999,,,,,,,,,,,,,,585.7057685,585.9324735,585.9324735,589.7066774999998,,,,777,001,,2024-04-23_09h47.00.612,Motor Imagery,2024.1.1,None,2024-04-23 09h47.13.360314 +0100,
Imagens/right.png,Imagens/up.png,"Vais fechar e abrir o punho direito ou esquerdo, mediante te apareça as setas "Direita" ou "Esquerda". Pressione a barra do ESPAÇO para começar.","Vais fechar e abrir ambos os punhos ou os pés, mediante te apareçam as setas "Para cima" ou "Para baixo", respetivamente. Pressione a barra do ESPAÇO para começar.",1,0,1,0,,,,,,,,,0,1,1,1,2,0,4,0,589.7217608999999,,,,,,,,,,,,,,,,,,,,,589.7072168,589.7217608999999,589.7217608999999,593.7050647000001,,,,,,,,,,,,,,593.7050905000001,593.8067035999998,593.8067035999998,597.7056498000002,,,,777,001,,2024-04-23_09h47.00.612,Motor Imagery,2024.1.1,None,2024-04-23 09h47.13.360314 +0100,
Imagens/left.png,Imagens/down.png,"Vais imaginar o movimento de fechar e abrir o punho direito ou esquerdo, mediante te apareça as setas "Direita" ou "Esquerda". Pressione a barra do ESPAÇO para começar.","Vais imaginar o movimento de fechar e abrir ambos os punhos ou os pés, mediante te apareçam "Para cima" ou "Para baixo", respetivamente.  Pressione a barra do ESPAÇO para começar.",1,0,1,0,,,,,,,,,0,1,1,1,2,1,5,1,597.7208596999999,,,,,,,,,,,,,,,,,,,,,597.7061795999998,597.7208596999999,597.7208596999999,601.7038951999998,,,,,,,,,,,,,,601.7039194999998,601.7392868000002,601.7392868000002,605.7038585999999,,,,777,001,,2024-04-23_09h47.00.612,Motor Imagery,2024.1.1,None,2024-04-23 09h47.13.360314 +0100,
Imagens/right.png,Imagens/up.png,"Vais fechar e abrir o punho direito ou esquerdo, mediante te apareça as setas "Direita" ou "Esquerda". Pressione a barra do ESPAÇO para começar.","Vais fechar e abrir ambos os punhos ou os pés, mediante te apareçam as setas "Para cima" ou "Para baixo", respetivamente. Pressione a barra do ESPAÇO para começar.",1,0,1,0,,,,,,,,,0,1,1,1,3,0,6,0,605.7198933999998,,,,,,,,,,,,,,,,,,,,,605.7044047999998,605.7198933999998,605.7198933999998,609.7029698000001,,,,,,,,,,,,,,609.7029947999999,609.8159937999999,609.8159937999999,613.7035704,,,,777,001,,2024-04-23_09h47.00.612,Motor Imagery,2024.1.1,None,2024-04-23 09h47.13.360314 +0100,
Imagens/left.png,Imagens/down.png,"Vais imaginar o movimento de fechar e abrir o punho direito ou esquerdo, mediante te apareça as setas "Direita" ou "Esquerda". Pressione a barra do ESPAÇO para começar.","Vais imaginar o movimento de fechar e abrir ambos os punhos ou os pés, mediante te apareçam "Para cima" ou "Para baixo", respetivamente.  Pressione a barra do ESPAÇO para começar.",1,0,1,0,,,,,,,,,0,1,1,1,3,1,7,1,613.7189684999998,,,,,,,,,,,,,,,,,,,,,613.7041080999998,613.7189684999998,613.7189684999998,617.7018791999999,,,,,,,,,,,,,,617.7019050999997,617.7387875999998,617.7387875999998,621.7016103000001,,,,777,001,,2024-04-23_09h47.00.612,Motor Imagery,2024.1.1,None,2024-04-23 09h47.13.360314 +0100,
Imagens/left.png,Imagens/down.png,"Vais imaginar o movimento de fechar e abrir o punho direito ou esquerdo, mediante te apareça as setas "Direita" ou "Esquerda". Pressione a barra do ESPAÇO para começar.","Vais imaginar o movimento de fechar e abrir ambos os punhos ou os pés, mediante te apareçam "Para cima" ou "Para baixo", respetivamente.  Pressione a barra do ESPAÇO para começar.",1,0,1,0,,,,,,,,,0,1,1,1,,,,,,,,,,,,,,,,,,,,,,,,,,,,,,,,,,,,,,,,,,,,,,,,,,777,001,,2024-04-23_09h47.00.612,Motor Imagery,2024.1.1,None,2024-04-23 09h47.13.360314 +0100,
,,,,1,0,1,0,,,,,,,,,,,,,,,,,,,,,,,,,,,,,,,,,,,,,,,,,,,,,,,,,,,,,,,,,,,,,,777,001,,2024-04-23_09h47.00.612,Motor Imagery,2024.1.1,None,2024-04-23 09h47.13.360314 +0100,
,,,,,,,,,,,,,,,,,,,,,,,,,,,,,,,,,,,,,,,,,,,,,,,,,,,,,,,,,,,,,,,,,,621.7018491999997,621.7178681,626.7007432999999,777,001,,2024-04-23_09h47.00.612,Motor Imagery,2024.1.1,None,2024-04-23 09h47.13.360314 +0100,
